ID,trialN,stimLevel,signalInterval,response,responseLR,confidence,RT,confRT,thresh,slope,SEthresh,SEslope,staircase
2,1,9,2,1,1,64.3229166666667,1.55455420003273,1.03469840000616,9.06221530468029,0.5891014044791,4.70870110043973,0.354628017980075,1
2,2,8,1,1,0,60.4166666666667,0.516813799971715,0.719830699963495,8.08428706106389,0.583141482383258,4.51988062969854,0.35483280964703,1
2,3,7,2,1,1,37.5,0.766808199987281,1.16830620000837,7.17621316997907,0.582121635097884,4.2511359783809,0.354982194930787,1
2,4,6,2,0,0,28.90625,0.183490400027949,0.916230999981053,10.0133788208231,0.577272617986231,4.06743032615413,0.355532795168993,1
2,5,9,1,1,0,47.65625,0.350456700020004,0.866343600035179,9.26300149713061,0.577685203760876,3.90291688216496,0.356844242610747,1
2,6,9,2,1,1,24.21875,0.276195900049061,0.408780400000978,8.60720596505015,0.585546247668898,3.66395837741607,0.358278154752638,1
2,7,9,2,1,1,28.3854166666667,0.233578899991699,0.628072699997574,8.05978916986922,0.598271578914327,3.38816686641079,0.359263932442554,1
2,8,8,2,0,0,44.53125,0.354697999951895,0.906996499979869,10.3817410831283,0.547437997190069,3.55495714969893,0.351289745426446,1
2,9,10,2,1,1,57.03125,0.228495399991516,0.74405639996985,9.83281883485249,0.555145292346198,3.38590185632948,0.353083967169295,1
2,10,10,2,0,0,63.8020833333333,0.283690199954435,1.12617760000285,12.1838068291374,0.490682844137966,3.37541331054556,0.335971561535368,1
2,11,12,1,1,0,64.3229166666667,0.247224599996116,0.774080900009722,11.707127826092,0.48550392975357,3.32769974889249,0.332942663662253,1
2,12,12,1,1,0,66.40625,0.220272000005934,0.643783900013659,11.270226914001,0.487004284610553,3.24549336290659,0.332129906726962,1
2,13,11,1,1,0,63.0208333333333,0.366738500015344,0.459941200038884,10.8403105727673,0.48905982984577,3.15997346413617,0.332334472589972,1
2,14,11,2,1,1,30.2083333333333,0.358389999950305,0.543915100046434,10.4496650063107,0.495853754374714,3.05077239695968,0.333780538553062,1
2,15,11,2,1,1,32.2916666666667,0.451161500008311,1.09315939998487,10.0999822989539,0.506051950619858,2.92641601018411,0.335812585388286,1
2,16,10,2,0,0,26.5625,0.250073799979873,0.726259300019592,11.5940692727214,0.480716297557231,2.90249494632106,0.329033420847499,1
2,17,12,1,1,0,72.9166666666667,0.516815399983898,0.560804199951235,11.2767953726504,0.49030056000835,2.80979296749753,0.33146204354784,1
2,18,12,1,0,1,0,0.233390300010797,0.60976819996722,12.8317703043078,0.42359010590698,2.85143095787829,0.307662130938144,1
2,19,13,1,1,0,59.8958333333333,0.383564800024033,1.62202980002621,12.5341578947866,0.425144912611785,2.81950642408988,0.307352206199033,1
2,20,13,1,1,0,91.9270833333333,0.398549999983516,1.14401809999254,12.2542340547711,0.430265035136807,2.77354152688215,0.308730974328295,1
2,21,13,2,1,1,78.6458333333333,0.295319999975618,0.875116200011689,11.9926892169462,0.4381518559611,2.71610876609711,0.31118536944881,1
2,22,13,2,1,1,32.2916666666667,0.383374300028663,0.60650260001421,11.7499202001913,0.44812447723362,2.64971818540497,0.314190906699646,1
2,23,13,1,1,0,64.0625,0.340235200012103,0.757299099990632,11.5260562316624,0.459613188535334,2.57680193751199,0.317342033424076,1
2,24,13,2,1,1,76.0416666666667,0.250060999998823,0.757936399953905,11.320965518646,0.472147652821343,2.49967826480127,0.320350367343928,1
2,25,13,2,1,1,64.0625,0.266921499976888,0.877538600005209,11.1342625645492,0.48534404671166,2.42050237018635,0.323027962463803,1
2,26,13,1,1,0,50.78125,0.283463899977505,1.46087759995135,10.9653261670093,0.49889296057987,2.34121476345701,0.325266136018577,1
2,27,11,2,1,1,66.1458333333333,0.183447999996133,0.793843900028151,10.7505950412312,0.496418714146384,2.30316772492643,0.323037751499416,1
2,28,10,2,1,1,38.5416666666667,0.326463199977297,0.566095800022595,10.5253757763544,0.48210172404689,2.29758623405404,0.317435366654333,1
2,29,10,1,1,0,61.4583333333333,0.100095500005409,0.793730499979574,10.3038889241972,0.471140510107286,2.28159368577835,0.312874194242681,1
2,30,9,1,1,0,73.4375,0.300089700031094,0.826628299953882,10.0765582365403,0.450481703026301,2.29526677007306,0.305740634789316,1
2,31,9,2,0,0,56.7708333333333,0.250060699996538,1.07649350003339,10.754190493171,0.500171003358037,2.15147152309035,0.317846748115451,1
2,32,12,2,1,1,58.8541666666667,0.233399100019597,0.860080300015397,10.6017018774138,0.511911659753722,2.07579017945912,0.319327378082816,1
2,33,12,2,1,1,64.5833333333333,0.150085799978115,1.24200000002747,10.4631394435527,0.523955120586655,2.00148053063256,0.320548114701694,1
2,34,12,2,1,1,54.4270833333333,0.250080799974967,0.744010199967306,10.3378535344695,0.5361430742653,1.92966887475952,0.321477731899039,1
2,35,11,1,1,0,61.9791666666667,0.283396599988919,0.822660200006794,10.1946745779638,0.540890499036215,1.87696379322383,0.321364294539243,1
2,36,9,2,0,0,32.5520833333333,0.233473100000992,0.677282400021795,10.6431075462409,0.607707320364674,1.73977259239225,0.32828018328643,1
2,37,12,1,0,1,20.0520833333333,0.375564699992537,0.556140700005926,11.4366826481223,0.499011554384762,2.05220998738583,0.313104820357119,1
2,38,14,1,1,0,76.0416666666667,0.350131499988493,2.16049740003655,11.3222127184424,0.51476331946269,1.97526836078519,0.314054085829692,1
2,39,13,1,1,0,92.4479166666667,0.400134800001979,0.760841399955098,11.2026201983074,0.529700648129743,1.90214943762641,0.315276737930559,1
2,40,13,2,1,1,88.8020833333333,0.383405299973674,1.02250100002857,11.0946137410809,0.544468379015798,1.83119415998311,0.315957990900926,1
2,41,13,1,1,0,97.9166666666667,0.450132300029509,0.894074200012255,10.9975747450643,0.558962200004126,1.76324836996269,0.316131710140815,1
2,42,13,1,1,0,66.6666666666667,0.433407200034708,0.974629500007723,10.9107974456004,0.573099709887279,1.69896929942476,0.315841174964362,1
2,43,13,1,1,0,70.3125,0.200037800008431,0.558644499978982,10.8335212751998,0.586818215945801,1.63882751859429,0.315134982548302,1
2,44,10,2,0,0,63.5416666666667,0.257781699998304,1.57813169999281,11.2372320436932,0.641789093401148,1.53849019677223,0.31983305637892,1
2,45,13,1,1,0,83.59375,0.377621199993882,0.760754399991129,11.1661502322283,0.656531760135361,1.47704484260376,0.31751365408066,1
2,46,13,1,1,0,80.7291666666667,0.433419200009666,0.643522500002291,11.1035041299177,0.6706466612814,1.4202160217347,0.314837787986958,1
2,47,11,1,1,0,71.6145833333333,0.333454100007657,0.605080900015309,10.9949756534553,0.663643225199024,1.40757066040729,0.312843672539019,1
2,48,11,2,1,1,45.8333333333333,0.200093899969943,0.95994819997577,10.8898208330074,0.658434758011833,1.39180510537858,0.311141976444365,1
2,49,11,2,1,1,63.0208333333333,0.250063300016336,0.578475299989805,10.7885431909995,0.654899242318983,1.37348276556501,0.309778580913895,1
2,50,11,1,1,0,33.3333333333333,0.350074900023174,0.527498200011905,10.691523210293,0.652907058699535,1.35315130990681,0.308769349765979,1
2,51,11,1,1,0,61.71875,0.300034500018228,0.424642400001176,10.5990329274072,0.652326792643873,1.33132638291276,0.308106267918366,1
2,52,9,2,0,0,70.3125,0.250104500039015,0.723627700004727,10.8325697561236,0.720349832227915,1.1987352935585,0.298711680295661,1
2,53,11,2,1,1,67.1875,0.216782700037584,0.784676000010222,10.7479014444109,0.721290032394609,1.17559063319835,0.2984040542881,1
2,54,11,2,1,1,62.7604166666667,0.266738500038628,0.860801799979527,10.6674020578837,0.72349935001007,1.15128387759178,0.298268349418858,1
2,55,11,2,0,0,33.3333333333333,0.383498199982569,0.708964599994943,11.0439093907656,0.706906496833667,1.19884914063746,0.297720764098539,1
2,56,13,2,1,1,94.0104166666667,0.200269199965987,0.643870299973059,11.003188049384,0.719705836304543,1.15104660693606,0.293749068674749,1
2,57,12,1,1,0,77.8645833333333,0.366803900047671,0.64373060001526,10.9485574197869,0.728972571593321,1.11326640288519,0.29122009152299,1
2,58,12,1,1,0,75.2604166666667,0.300037499982864,0.670222299988382,10.8985139069624,0.738134811347751,1.07798686757701,0.288638845876155,1
2,59,12,1,1,0,81.25,0.283408899966162,0.861585100006778,10.8527262853887,0.747164524106671,1.04519978022989,0.286013165387169,1
2,60,11,1,1,0,83.3333333333333,0.350125600001775,0.526596400013659,10.7837826436857,0.744927946914966,1.03349299926482,0.285487741062782,1
2,61,11,2,1,1,19.2708333333333,0.293261299957521,0.544039200001862,10.7175277222237,0.74369101091794,1.02103541172402,0.285073710606244,1
2,62,9,1,1,0,22.3958333333333,0.800194400013424,1.41076689999318,10.6354614933677,0.71215225889564,1.06796707237308,0.289324017854562,1
2,63,9,1,1,0,26.8229166666667,0.366741500038188,1.0431690000114,10.5471481924844,0.680536284392019,1.11349285816154,0.29175233365704,1
2,64,9,2,1,1,57.2916666666667,0.128933900035918,0.642290699994192,10.4532938552447,0.649349790163598,1.1567031320176,0.292405263913095,1
2,65,9,1,1,0,22.3958333333333,0.299936499970499,0.710547700000461,10.3547730211217,0.61905581713543,1.19685369337804,0.291428526830441,1
2,66,9,1,1,0,75.5208333333333,0.183443999965675,0.860311700031161,10.2525556086918,0.590042278205639,1.23340712141717,0.289044240849956,1
2,67,8,2,0,0,54.1666666666667,0.33339280000655,0.409046999993734,10.4506451884672,0.654268466686506,1.10178179205357,0.281137751861398,1
2,68,9,1,1,0,28.6458333333333,0.300094600010198,1.29317759996047,10.362490784832,0.62715051716474,1.13500706922337,0.28042025329358,1
2,69,9,1,1,0,19.7916666666667,0.286977600015234,0.641405100002885,10.2714258210544,0.601186125091096,1.16540522835272,0.278648711840172,1
2,70,8,1,0,1,58.59375,0.183395700005349,1.1877638999722,10.4410747193627,0.659464074968948,1.05351125877156,0.270546380015269,1
2,71,9,1,1,0,3.90625,0.16691400000127,0.610599800013006,10.3614910568846,0.63522099749627,1.08080159632018,0.270079647719961,1
2,72,9,1,1,0,41.6666666666667,0.416767599992454,1.14029549999395,10.2796362213139,0.612018459050974,1.10582950884596,0.268838945237437,1
2,73,9,1,1,0,66.40625,0.35009209997952,1.3569171000272,10.1960296857024,0.589999096604734,1.12847249900697,0.26698160541319,1
2,74,8,2,0,0,27.8645833333333,0.348840399994515,1.05966290005017,10.3533898381372,0.643395667822003,1.03284461654906,0.260437346340635,1
2,75,12,1,0,1,56.25,0.0833759999950416,1.42638580000494,10.67543987254,0.560817287613974,1.22395511873951,0.260879317983022,1
2,76,13,2,1,1,57.2916666666667,0.324276200029999,0.808450700016692,10.6351706067725,0.571351383734279,1.18315094700314,0.259253204793447,1
2,77,13,2,1,1,67.4479166666667,0.483391800022218,1.0783404999529,10.5990610070723,0.581500681125279,1.145679960296,0.257486544659675,1
2,78,13,1,1,0,70.0520833333333,0.250068499997724,0.777245500008576,10.5667207169474,0.591266057169538,1.11141873391114,0.255605117804575,1
2,79,13,2,1,1,16.9270833333333,0.233392599970102,0.659054299991112,10.5377832580764,0.600651637931259,1.08020921032415,0.253632445108342,1
2,80,9,2,0,0,4.6875,0.350075200025458,0.910761899955105,10.7113401500674,0.647581794173295,1.00754889657071,0.25076723680409,1
2,81,13,1,1,0,59.6354166666667,0.550085700000636,1.11072280001827,10.6856356689438,0.656647279793863,0.978180947677168,0.24808583374892,1
2,82,9,1,1,0,61.9791666666667,0.250126000028104,0.909916300035547,10.6172884226729,0.634988460649285,1.00179537411968,0.248077537824876,1
2,83,9,1,0,1,40.3645833333333,0.300030699989293,1.50746369996341,10.767003881569,0.679619199539505,0.935520461647298,0.243332340067346,1
2,84,12,2,1,1,38.0208333333333,0.200036099995486,1.05596059997333,10.7300155692682,0.686692041254251,0.910362444042539,0.24132363907548,1
2,85,12,1,1,0,23.1770833333333,0.31684210000094,2.10973150003701,10.6954959610584,0.693653369895526,0.88701287117904,0.23934975829375,1
2,86,12,2,0,0,5.46875,0.43340509996051,0.606087299995124,10.9633455869492,0.63676030046578,1.01070469495123,0.247669891467074,1
2,87,13,2,1,1,53.6458333333333,0.366706800006796,0.893992300028913,10.9339040248902,0.646127736274838,0.978777275851042,0.245071707708182,1
2,88,13,2,1,1,36.71875,0.516455600038171,0.66140430001542,10.9074715693171,0.655087873865376,0.949789172271183,0.242446475795638,1
2,89,13,2,1,1,68.75,0.250085000006948,1.32647910004016,10.883741622331,0.663653255432208,0.923560211741686,0.239813315739893,1
2,90,9,1,1,0,56.5104166666667,0.216827499971259,0.671236100024544,10.8203668196093,0.641694314916847,0.948664250663816,0.240127752634158,1
2,91,9,1,1,0,27.6041666666667,0.300312799983658,1.19394609995652,10.7553315264535,0.620377893107597,0.972446084844803,0.239872260193099,1
2,92,9,2,0,0,22.3958333333333,0.316779699991457,1.51072030002251,10.8945525768913,0.663450518002534,0.908257971004155,0.235674764378616,1
2,93,13,2,1,1,71.09375,0.216808199998923,0.655822400003672,10.8725597748283,0.671586011917283,0.883878508859001,0.232991144148749,1
2,94,10,1,1,0,62.5,0.516746400040574,0.861431099998299,10.811414495368,0.65844021921055,0.891174996862741,0.231631894062,1
2,95,13,2,1,1,84.1145833333333,0.333580899983644,0.694088899996132,10.7916427827798,0.666149120850051,0.869401313600812,0.229081073684418,1
2,96,9,1,1,0,76.3020833333333,0.266703800007235,1.07531059999019,10.7312870151171,0.646217217622096,0.890417641076602,0.229537554680049,1
2,97,9,2,1,1,15.625,0.316735699947458,0.892047000001185,10.6697633162863,0.62686142856829,0.910473648734306,0.229584563453134,1
2,98,9,2,1,1,44.2708333333333,0.32722689997172,0.609571399982087,10.6072684658313,0.608165135205296,0.929490544693488,0.229281721468586,1
2,99,9,1,1,0,30.46875,0.250136999995448,1.05797049996909,10.5439841815029,0.590188341059548,0.947417384484726,0.228688206428713,1
2,100,13,2,1,1,79.6875,0.294315500010271,0.659983499965165,10.5245515674706,0.597691475204397,0.92682396406108,0.226738286058997,1
2,1,8,1,1,0,27.8645833333333,0.786724500008859,0.689650500018615,11.0579052108831,NaN,NaN,NaN,2
2,2,8,2,1,1,0,0.561481200042181,1.05749159998959,11.0579052108831,NaN,NaN,NaN,2
2,3,8,2,1,1,24.21875,0.563307999982499,1.13752099999692,11.0579052108831,NaN,NaN,NaN,2
2,4,8,2,1,1,21.09375,0.350141800008714,1.27423149999231,11.0579052108831,NaN,NaN,NaN,2
2,5,7,2,0,0,15.3645833333333,0.367160100024194,0.736931399966124,11.0579052108831,NaN,NaN,NaN,2
2,6,11,1,1,0,45.8333333333333,0.298577000037767,1.39189129997976,11.0579052108831,NaN,NaN,NaN,2
2,7,10,2,0,0,49.7395833333333,0.283467600005679,0.691138200054411,11.0579052108831,NaN,NaN,NaN,2
2,8,7,2,0,0,58.59375,0.450472600001376,0.678319800004829,11.0579052108831,NaN,NaN,NaN,2
2,9,12,2,0,0,67.1875,0.266934099956416,0.477342199999839,11.0579052108831,NaN,NaN,NaN,2
2,10,14,1,1,0,100,0.433434900012799,1.75840260001132,11.0579052108831,NaN,NaN,NaN,2
2,11,11,2,1,1,65.625,0.65017809998244,1.12816399999429,11.0579052108831,NaN,NaN,NaN,2
2,12,10,2,1,1,72.65625,0.283486300031655,0.960498599975836,11.0579052108831,NaN,NaN,NaN,2
2,13,10,2,1,1,42.7083333333333,0.604961099976208,0.972659299965017,11.0579052108831,NaN,NaN,NaN,2
2,14,13,1,1,0,78.90625,0.250236799998675,0.560246700013522,11.0579052108831,NaN,NaN,NaN,2
2,15,9,2,1,1,39.3229166666667,0.716732900007628,0.606857000035234,11.0579052108831,NaN,NaN,NaN,2
2,16,13,1,1,0,58.8541666666667,0.240149000019301,1.01059790002182,11.0579052108831,NaN,NaN,NaN,2
2,17,9,1,1,0,58.8541666666667,0.25030140002491,0.72894569998607,11.0579052108831,NaN,NaN,NaN,2
2,18,8,2,0,0,72.9166666666667,0.46873909997521,0.90943800000241,11.0579052108831,NaN,NaN,NaN,2
2,19,13,2,1,1,84.375,0.266723399981856,0.793948900012765,11.0579052108831,NaN,NaN,NaN,2
2,20,11,1,1,0,84.375,0.433495900011621,0.813008399971295,11.0579052108831,NaN,NaN,NaN,2
2,21,13,1,1,0,88.28125,0.2942646999727,0.9559952999698,11.0579052108831,NaN,NaN,NaN,2
2,22,13,1,1,0,83.3333333333333,0.23342559998855,0.895123599970248,11.0579052108831,NaN,NaN,NaN,2
2,23,10,1,0,1,86.71875,0.183398300025146,0.691636100003961,11.0579052108831,NaN,NaN,NaN,2
2,24,12,1,1,0,79.6875,0.300071400008164,1.7224529000232,11.0579052108831,NaN,NaN,NaN,2
2,25,12,1,1,0,65.3645833333333,0.300174799980596,0.695274099998642,11.0579052108831,NaN,NaN,NaN,2
2,26,12,2,1,1,63.28125,0.390809800010175,0.97809559997404,11.0579052108831,NaN,NaN,NaN,2
2,27,11,2,1,1,24.7395833333333,0.350058899959549,0.910782999999356,11.0579052108831,NaN,NaN,NaN,2
2,28,12,1,1,0,66.6666666666667,0.233602899999823,0.661091600020882,11.0579052108831,NaN,NaN,NaN,2
2,29,11,1,1,0,75,0.354951300018001,0.711668400035705,11.0579052108831,NaN,NaN,NaN,2
2,30,11,1,1,0,79.9479166666667,0.300203700026032,0.711766599968541,11.0579052108831,NaN,NaN,NaN,2
2,31,10,1,1,0,67.7083333333333,0.283692099968903,0.845618500025012,11.0579052108831,NaN,NaN,NaN,2
2,32,10,2,0,0,23.1770833333333,0.617050699947868,0.706947600003332,11.0579052108831,NaN,NaN,NaN,2
2,33,12,1,1,0,78.90625,0.266729899973143,0.494039500015788,11.0579052108831,NaN,NaN,NaN,2
2,34,12,2,0,0,68.2291666666667,0.440135999990162,0.928448499995284,11.0579052108831,NaN,NaN,NaN,2
2,35,13,2,1,1,76.5625,0.3001615999965,1.09531080001034,11.0579052108831,NaN,NaN,NaN,2
2,36,11,1,1,0,21.6145833333333,1.35918239998864,1.14407989999745,11.0579052108831,NaN,NaN,NaN,2
2,37,13,2,1,1,68.2291666666667,0.716763300006278,1.26105999998981,11.0579052108831,NaN,NaN,NaN,2
2,38,11,1,1,0,72.65625,0.116842699993867,0.830138799967244,11.0579052108831,NaN,NaN,NaN,2
2,39,11,1,1,0,81.7708333333333,0.766818899952341,0.72921740001766,11.0579052108831,NaN,NaN,NaN,2
2,40,12,1,1,0,0,0.300125600013416,0.627790300000925,11.0579052108831,NaN,NaN,NaN,2
2,41,11,1,1,0,67.7083333333333,0.297126299992669,0.628304199955892,11.0579052108831,NaN,NaN,NaN,2
2,42,12,2,1,1,45.3125,0.260276299959514,0.827696799999103,11.0579052108831,NaN,NaN,NaN,2
2,43,10,2,1,1,62.5,0.259192500030622,0.69474090001313,11.0579052108831,NaN,NaN,NaN,2
2,44,12,2,0,0,17.7083333333333,0.399977800028864,0.69516600004863,11.0579052108831,NaN,NaN,NaN,2
2,45,10,2,0,0,62.2395833333333,0.333446100004949,0.79465060000075,11.0579052108831,NaN,NaN,NaN,2
2,46,13,2,1,1,61.4583333333333,0.250074399984442,0.660920800000895,11.0579052108831,NaN,NaN,NaN,2
2,47,11,1,1,0,64.84375,0.283459400001448,0.544017700012773,11.0579052108831,NaN,NaN,NaN,2
2,48,11,1,1,0,73.4375,0.250133700028528,0.629359600017779,11.0579052108831,NaN,NaN,NaN,2
2,49,13,1,1,0,78.6458333333333,0.241497499984689,0.552408099989407,11.0579052108831,NaN,NaN,NaN,2
2,50,11,1,1,0,64.5833333333333,0.300145999994129,0.52839180000592,11.0579052108831,NaN,NaN,NaN,2
2,51,12,2,1,1,70.5729166666667,0.349388100032229,0.744878299999982,11.0579052108831,NaN,NaN,NaN,2
2,52,12,1,1,0,33.0729166666667,0.46682289999444,0.455040299973916,11.0579052108831,NaN,NaN,NaN,2
2,53,11,2,1,1,57.5520833333333,0.248715399997309,0.644649099966045,11.0579052108831,NaN,NaN,NaN,2
2,54,12,2,1,1,50.2604166666667,0.300053799990565,0.945208699966315,11.0579052108831,NaN,NaN,NaN,2
2,55,10,1,1,0,56.25,0.250090099987574,1.01147880003555,11.0579052108831,NaN,NaN,NaN,2
2,56,10,1,0,1,68.2291666666667,0.633420899976045,0.757999800029211,11.0579052108831,NaN,NaN,NaN,2
2,57,12,1,1,0,27.8645833333333,0.380511499999557,0.561640599975362,11.0579052108831,NaN,NaN,NaN,2
2,58,12,2,1,1,59.375,0.215996500046458,0.679327199992258,11.0579052108831,NaN,NaN,NaN,2
2,59,11,2,1,1,64.0625,0.231747100013308,0.527028799988329,11.0579052108831,NaN,NaN,NaN,2
2,60,11,2,1,1,58.0729166666667,0.280685600009747,0.627662399958353,11.0579052108831,NaN,NaN,NaN,2
13,1,9,1,1,0,13.8020833333333,0.844898000000285,1.06332780000002,9.06221530468029,0.5891014044791,4.70870110043973,0.354628017980075,1
13,2,8,1,1,0,79.9479166666667,0.650506200000109,0.657226899999841,8.08428706106389,0.583141482383258,4.51988062969854,0.35483280964703,1
13,3,7,1,1,0,23.1770833333333,0.933472300000176,1.65643629999977,7.17621316997907,0.582121635097884,4.2511359783809,0.354982194930787,1
13,4,6,2,0,0,37.7604166666667,0.672906299999795,0.972448399999848,10.0133788208231,0.577272617986231,4.06743032615413,0.355532795168993,1
13,5,9,2,1,1,80.2083333333333,0.433453699999973,1.52548950000028,9.26300149713061,0.577685203760876,3.90291688216496,0.356844242610747,1
13,6,9,2,1,1,67.1875,2.29107190000013,1.09110740000051,8.60720596505015,0.585546247668898,3.66395837741607,0.358278154752638,1
13,7,9,2,1,1,80.46875,1.37558119999994,1.01969199999985,8.05978916986922,0.598271578914327,3.38816686641079,0.359263932442554,1
13,8,8,2,1,1,80.2083333333333,0.563548500000252,0.659529700000348,7.56802115591286,0.60903766299388,3.13858469141592,0.360010293142647,1
13,9,7,1,0,1,81.7708333333333,0.316759899999852,0.942125100000339,9.22561720659949,0.610326207323803,3.22993324666897,0.361363710012738,1
13,10,9,2,1,1,88.8020833333333,0.400152299999718,0.742430799999966,8.76291338325435,0.628391298001058,2.98400078433761,0.362699876545812,1
13,11,9,1,0,1,100,0.350151499999811,0.759285199999795,10.9495969343476,0.512896332556998,3.39991962617344,0.34110046464731,1
13,12,11,1,0,1,100,0.459516799999619,1.14232859999993,13.131767445446,0.479307424966367,3.16534954038147,0.335322237937058,1
13,13,13,2,0,0,50.2604166666667,0.856590599999436,1.57752479999999,14.6961613478038,0.521946532914351,2.61842354856876,0.354581425526946,1
13,14,14,2,1,1,100,0.383340499999576,0.760735599999862,14.3844842250209,0.497756800586168,2.68836565557977,0.346361388385949,1
13,15,14,2,1,1,53.6458333333333,0.51674230000026,0.893079099999341,14.0781572069519,0.479747314896012,2.73875764629695,0.339189151664116,1
13,16,14,1,1,0,100,0.488005000000157,1.39305119999972,13.7801025445951,0.467369839059486,2.77119662291094,0.333607647906792,1
13,17,13,1,1,0,0,0.61697969999932,1.69408440000007,13.462829340667,0.449843109065065,2.81472848002668,0.325678098081331,1
13,18,13,2,1,1,100,0.634072100000594,0.74341749999985,13.1522171437212,0.43755643125948,2.84029116836918,0.31935902524838,1
13,19,12,1,1,0,0,1.10024229999999,2.86105319999933,12.8288056984015,0.420675015813439,2.87726946614377,0.310672567203306,1
13,20,12,2,1,1,80.7291666666667,0.891580299999987,0.994310699999915,12.5093229286859,0.408890166056344,2.89551848189307,0.303904443970993,1
13,21,12,1,0,1,78.90625,1.16941620000034,1.49197370000002,13.6509341985268,0.435333487758999,2.59066550048375,0.318892859295303,1
13,22,15,1,1,0,83.3333333333333,1.01681489999919,0.659959499999786,13.4483647611955,0.441505190295116,2.57342990094948,0.320860192529613,1
13,23,15,2,1,1,100,0.700065999999424,0.743365199999971,13.2560245120497,0.44959209821874,2.54895495950607,0.323499992481399,1
13,24,15,2,1,1,100,0.671700099999725,0.909904000000097,13.0744237249561,0.459201027077598,2.51838658097744,0.326490250617963,1
13,25,15,1,1,0,100,2.1667036000008,1.31176209999921,12.9039801799872,0.469988638320682,2.48291881832849,0.329572133985005,1
13,26,11,1,1,0,23.4375,1.09401580000031,1.31049200000052,12.6531282108621,0.440662888050548,2.54249125499793,0.316776364250313,1
13,27,11,1,0,1,83.8541666666667,1.2359391,0.988255500000378,13.3566462672319,0.507652564901618,2.27188566888082,0.339787865670994,1
13,28,15,1,1,0,99.21875,0.827024500000334,1.09422480000012,13.2054443432359,0.521112944624892,2.23091995376663,0.342767300714892,1
13,29,15,2,1,1,100,0.432036500000322,1.32797260000007,13.0652653205208,0.53534695866787,2.18667517437572,0.345362251302514,1
13,30,15,2,1,1,100,0.591886700000032,1.12766960000044,12.9362142203368,0.550086318191565,2.14032097675123,0.347467636574245,1
13,31,15,1,0,1,100,1.12523549999969,1.9613846000002,13.8466259177409,0.434248863424615,2.27852385799006,0.311789249363005,1
13,32,16,2,1,1,100,1.41184199999952,1.02721519999977,13.716607432929,0.445858255139451,2.25634354937129,0.315754421908182,1
13,33,16,1,1,0,100,1.74262790000012,0.957014900000104,13.5925931685983,0.458110143326742,2.23057646825106,0.319524391073964,1
13,34,16,1,1,0,100,1.08501879999949,0.593212599999788,13.4750739045816,0.470868721167467,2.20185326748241,0.323007755817192,1
13,35,16,2,1,1,100,1.09788010000011,1.28927209999983,13.3644346821063,0.484003522382947,2.17083663779927,0.326135272651395,1
13,36,11,2,1,1,100,0.489730799999961,0.88923960000011,13.1720818025006,0.450615079247173,2.23534179995039,0.313946085628583,1
13,37,11,2,1,1,8.59375,1.50650510000014,0.958955600000081,12.9734434063346,0.421241555918831,2.28927747899619,0.301008904052297,1
13,38,11,2,1,1,85.4166666666667,1.48242030000074,1.2774545000002,12.7709583421247,0.395859911652251,2.33257581065592,0.288097103917235,1
13,39,11,1,1,0,100,0.653153500000371,1.04325570000037,12.5666835790976,0.374258734429217,2.36562412283441,0.275822634042261,1
13,40,11,2,0,0,16.40625,0.60037790000024,0.910810600000332,13.1573354141001,0.426695161618079,2.19183009106016,0.29979009738354,1
13,41,16,1,1,0,100,1.39885119999963,0.735791099999915,13.0522249303106,0.438748270525526,2.15788338052656,0.30301842671933,1
13,42,16,2,1,1,100,0.944447599999876,0.85786090000056,12.9536929774117,0.450964177115419,2.12276217455207,0.305900827669549,1
13,43,11,2,0,0,36.1979166666667,1.6333883999996,0.75816339999983,13.4105282080695,0.518312967118501,1.94211523303072,0.324501011089079,1
13,44,16,2,1,1,100,0.556487899999411,0.893569299999399,13.3225488920899,0.532924098627162,1.90417506032444,0.32611235756784,1
13,45,16,1,1,0,100,1.20013709999967,1.01059359999999,13.2413403889298,0.547476988436627,1.86595000294264,0.327209484567674,1
13,46,11,1,1,0,13.28125,1.12159659999998,3.37751680000019,13.0867475846996,0.513390058564155,1.92157210305309,0.318668664677684,1
13,47,11,2,0,0,87.5,0.627261699999508,2.11009579999973,13.460135370702,0.585567464999237,1.74973934075679,0.329519418886628,1
13,48,16,1,1,0,100,1.71526220000032,1.08722529999977,13.3866547849932,0.600925610333146,1.70961394055722,0.329208660239172,1
13,49,15,1,1,0,100,0.594993700000487,0.610054300000229,13.2983801386555,0.613782314371801,1.67225519521352,0.329043975474253,1
13,50,15,1,1,0,100,0.650366500000018,0.671063700000559,13.2167223956476,0.626742041291766,1.63468985617967,0.328521056925331,1
13,51,15,2,0,0,100,0.694681699999819,0.627563099999861,13.8116874869514,0.52417703155347,1.79646934433864,0.317243970929862,1
13,52,17,1,1,0,100,0.783504799999719,1.52479820000008,13.7472223236648,0.538666105539573,1.76488536415664,0.318044264795571,1
13,53,17,1,1,0,100,1.32092439999997,0.592219699999987,13.6878764363331,0.552930485272702,1.73344298028135,0.318358077340104,1
13,54,11,1,1,0,0,0.817665200000192,0.909995299999537,13.5531020472638,0.51784239893353,1.79295513122945,0.310889444959395,1
13,55,11,2,0,0,0,0.641185099999348,2.37618569999995,13.8558498027261,0.587629830474076,1.63228525334114,0.318637446370681,1
13,56,16,1,1,0,93.2291666666667,2.09375670000009,0.843259599999328,13.7878339127246,0.601728902486722,1.59989453582693,0.318446901976602,1
13,57,16,1,1,0,100,1.10029130000021,0.660105300000396,13.7250497720401,0.615656138256392,1.56773168911978,0.317814624646688,1
13,58,12,1,1,0,91.9270833333333,1.11685099999977,1.82736670000031,13.5970888896278,0.587393385060156,1.60929779241284,0.313362227440682,1
13,59,16,1,1,0,100,1.0280001000001,1.33975259999988,13.5381282685058,0.600756510287198,1.57748029021607,0.312836576178133,1
13,60,12,1,1,0,0,0.600270299999465,0.660844099999849,13.4074636778804,0.574793976934204,1.61251764396126,0.307977701167812,1
13,61,11,1,1,0,0,1.22734700000001,0.744785299999421,13.2802348337023,0.542461330970934,1.66164272943976,0.302308657356039,1
13,62,11,2,0,0,0,0.950068000000101,0.794194799999786,13.567860044388,0.608362972692974,1.52253087861435,0.307068191815346,1
13,63,16,1,1,0,100,1.20334090000051,1.11038860000008,13.513370581443,0.62156393089489,1.49007982316038,0.305868211449204,1
13,64,13,1,1,0,84.6354166666667,1.50265769999987,0.807442500000434,13.397096174023,0.610334014630067,1.49595831487958,0.303252860458754,1
13,65,16,2,1,1,100,1.1546785999999,1.09585470000002,13.348019828383,0.623036439057144,1.46415029696392,0.301878019436814,1
13,66,13,2,0,0,0,1.86529659999997,0.676262299999507,13.7442791966787,0.65510583912246,1.38991928740612,0.306730390184743,1
13,67,16,1,1,0,100,1.16722980000031,0.877773799999886,13.699007606957,0.668196485038847,1.35948547110692,0.304542557438248,1
13,68,12,1,0,1,0,0.500052600000345,0.607711300000119,13.947453009416,0.731715508542297,1.2327251951856,0.299944033657565,1
13,69,16,2,1,1,91.1458333333333,0.579274699999587,0.959352400000171,13.9080652118841,0.744430846481299,1.20328847210964,0.296181791916943,1
13,70,13,2,1,1,14.0625,1.26165599999968,0.875689700000294,13.8103934438945,0.726756081399861,1.22291666548176,0.29583577300271,1
13,71,13,1,0,1,9.63541666666667,1.3546667999999,0.876663799999733,14.0908319018445,0.7724461941362,1.13073055186147,0.293310171066909,1
13,72,16,1,1,0,100,0.700111299999662,1.8375999000009,14.0553858094041,0.784794986444836,1.10219786214615,0.288784201181633,1
13,73,16,2,1,1,100,0.605173900000409,1.07761130000017,14.0234652834386,0.796533179830247,1.07537407609622,0.284124577892974,1
13,74,13,2,1,1,71.875,1.28236310000011,1.9597761999994,13.9356531680293,0.777379167465886,1.09845220886506,0.285537158240734,1
13,75,13,1,1,0,10.9375,1.76178020000043,1.05917489999956,13.8473622924112,0.759563640877365,1.11827331226621,0.286213949146554,1
13,76,12,1,1,0,0,1.78200860000015,0.978362400000151,13.7603307664039,0.731492367718385,1.1573534210389,0.2886834039475,1
13,77,12,2,0,0,0.520833333333333,0.837068399999225,1.27665069999966,13.9494894060726,0.788978951420901,1.05134278169019,0.277947854777871,1
13,78,15,1,1,0,100,0.554957599999398,0.677356999999574,13.9013613129054,0.797013530968359,1.02891013058808,0.274629779636218,1
13,79,15,1,1,0,100,0.505600600000434,0.427566200000001,13.8562114630311,0.804984976779159,1.00704995462261,0.271254857255575,1
13,80,14,2,1,1,100,0.510857600000236,0.511830999999802,13.7893883779284,0.803579296662357,0.999215281281911,0.269958457524244,1
13,81,14,2,0,0,18.2291666666667,1.65492750000067,2.31056330000047,14.0850668807167,0.805868821874973,0.987845853099013,0.275744857305194,1
13,82,16,1,1,0,100,0.633548100000553,0.443143200000122,14.0595003745432,0.816794042312311,0.963148968036388,0.270850626880566,1
13,83,13,1,1,0,100,0.594715299999734,0.59329119999984,13.9854888891491,0.798168092453887,0.985134471425448,0.272739543044255,1
13,84,12,2,0,0,10.6770833333333,1.16669879999972,0.771593799999209,14.1216010949411,0.850239995889035,0.890375124334994,0.256347683858055,1
13,85,15,2,1,1,100,0.516926799999965,1.49487909999971,14.0817208107009,0.856737740611793,0.871921658617659,0.252727624340243,1
13,86,15,2,1,1,100,1.40021640000032,0.845333499999469,14.0441563049544,0.863145703250201,0.854124453567812,0.249106635977503,1
13,87,15,2,1,1,100,0.607977200000278,2.06602049999947,14.0087986322517,0.869445516049598,0.837035264576558,0.245497968159081,1
13,88,15,1,0,1,71.3541666666667,1.99921040000027,1.73993070000051,14.2717360526769,0.82061938091205,0.914847177212175,0.267194841872351,1
13,89,16,1,1,0,100,0.683456799999476,0.990257200000087,14.2472657852983,0.831110358861414,0.891685884942809,0.262310179374238,1
13,90,16,2,1,1,100,0.521266599999763,0.461455800000294,14.2252318285386,0.841034144081292,0.870165032628606,0.257431295339103,1
13,91,13,2,1,1,0,0.57367129999966,0.492371600000297,14.1599842252859,0.82154312800005,0.894409926606934,0.260277046063759,1
13,92,13,2,1,1,83.8541666666667,1.47449870000037,2.30924499999946,14.0934638553815,0.802667957976909,0.916954711472585,0.262311026530137,1
13,93,12,2,1,1,0,0.573678200000359,2.89405539999916,14.0281580171119,0.775906395689462,0.954807532064025,0.26689389040908,1
13,94,12,2,1,1,99.21875,1.03338939999958,1.02823360000002,13.9598106408567,0.749144442915868,0.99183338934874,0.270151384907899,1
13,95,12,2,0,0,2.86458333333333,1.0655399999996,1.07449569999972,14.1000518367849,0.801355387721157,0.900805729301429,0.258389085087069,1
13,96,16,1,0,1,79.6875,0.893139499999961,2.69374710000011,14.3482565962894,0.68800494335635,1.08720418268899,0.281413465228196,1
13,97,17,1,1,0,100,0.463442499999474,0.544240700000046,14.3184826524985,0.700557031205624,1.05925096409253,0.277836007566942,1
13,98,17,2,1,1,100,0.56675340000038,0.99332719999984,14.29166418056,0.712542573633624,1.03271890543744,0.274078440839604,1
13,99,17,2,1,1,100,0.8945334,0.641647899999953,14.2675951886589,0.723959780551766,1.00768704374711,0.270188600774094,1
13,100,17,2,1,1,100,0.838544299999739,0.790882399999646,14.2460657592773,0.734813430482633,0.98419819506077,0.266210327608483,1
13,1,8,2,0,0,8.07291666666667,1.39747059999991,1.2491286000004,14.2867752223604,NaN,NaN,NaN,2
13,2,8,2,0,0,0,0.81687619999957,0.639858099999401,14.2867752223604,NaN,NaN,NaN,2
13,3,12,2,1,1,39.3229166666667,1.14357170000039,1.69081510000069,14.2867752223604,NaN,NaN,NaN,2
13,4,12,2,1,1,100,0.873952199999621,1.89030470000034,14.2867752223604,NaN,NaN,NaN,2
13,5,12,2,0,0,30.7291666666667,0.796267700000499,0.974598099999639,14.2867752223604,NaN,NaN,NaN,2
13,6,13,1,0,1,100,0.656794200000149,0.707020900000316,14.2867752223604,NaN,NaN,NaN,2
13,7,12,1,1,0,64.84375,1.5732624000002,1.42682580000019,14.2867752223604,NaN,NaN,NaN,2
13,8,11,2,0,0,0,0.583892599999672,0.50932019999982,14.2867752223604,NaN,NaN,NaN,2
13,9,14,1,1,0,100,0.354988399999456,0.441168299999845,14.2867752223604,NaN,NaN,NaN,2
13,10,13,1,1,0,0,0.92548269999952,0.709964800000307,14.2867752223604,NaN,NaN,NaN,2
13,11,13,1,0,1,13.28125,0.503513900000144,1.21138079999946,14.2867752223604,NaN,NaN,NaN,2
13,12,14,1,1,0,100,0.59703939999963,1.09456739999951,14.2867752223604,NaN,NaN,NaN,2
13,13,14,1,1,0,71.6145833333333,0.610569600000417,2.0291373,14.2867752223604,NaN,NaN,NaN,2
13,14,14,1,1,0,89.5833333333333,0.482992599999307,0.993556099999296,14.2867752223604,NaN,NaN,NaN,2
13,15,14,1,1,0,100,0.948366200000237,0.360762899999827,14.2867752223604,NaN,NaN,NaN,2
13,16,14,2,0,0,85.4166666666667,2.0908257000001,2.4257662,14.2867752223604,NaN,NaN,NaN,2
13,17,14,2,1,1,0,1.37225660000058,0.877122500000041,14.2867752223604,NaN,NaN,NaN,2
13,18,14,1,0,1,0.260416666666667,1.32337420000022,2.93934660000014,14.2867752223604,NaN,NaN,NaN,2
13,19,14,1,0,1,0,1.2922996999996,2.76172330000009,14.2867752223604,NaN,NaN,NaN,2
13,20,14,2,1,1,100,0.506409100000383,0.59382049999931,14.2867752223604,NaN,NaN,NaN,2
13,21,14,2,0,0,0,1.42003339999974,0.561046699999679,14.2867752223604,NaN,NaN,NaN,2
13,22,15,1,1,0,100,0.736888000000363,0.812552100000175,14.2867752223604,NaN,NaN,NaN,2
13,23,15,1,1,0,100,0.469244699999763,0.510352100000091,14.2867752223604,NaN,NaN,NaN,2
13,24,15,2,1,1,100,0.492100399999799,0.54297570000017,14.2867752223604,NaN,NaN,NaN,2
13,25,15,1,1,0,82.8125,2.14512960000047,0.776221699999951,14.2867752223604,NaN,NaN,NaN,2
13,26,15,2,1,1,100,0.511723800000254,0.778612400000384,14.2867752223604,NaN,NaN,NaN,2
13,27,15,2,1,1,100,0.411480200000369,0.745593200000258,14.2867752223604,NaN,NaN,NaN,2
13,28,14,2,0,0,89.5833333333333,1.5707095000007,0.778652500000135,14.2867752223604,NaN,NaN,NaN,2
13,29,15,2,1,1,100,0.447108899999876,0.810999999999694,14.2867752223604,NaN,NaN,NaN,2
13,30,15,1,1,0,100,0.519959299999755,0.827661199999966,14.2867752223604,NaN,NaN,NaN,2
13,31,15,1,1,0,100,0.791405699999814,0.794111999999586,14.2867752223604,NaN,NaN,NaN,2
13,32,14,1,1,0,100,0.753674800000226,0.560930699999517,14.2867752223604,NaN,NaN,NaN,2
13,33,14,2,1,1,100,0.4928946,0.477080200000273,14.2867752223604,NaN,NaN,NaN,2
13,34,15,2,1,1,100,0.415961099999549,0.446123400000033,14.2867752223604,NaN,NaN,NaN,2
13,35,15,1,1,0,100,1.06981350000024,0.478275800000119,14.2867752223604,NaN,NaN,NaN,2
13,36,14,2,0,0,0,0.47541050000018,0.592860800000381,14.2867752223604,NaN,NaN,NaN,2
13,37,15,1,1,0,92.4479166666667,0.733476000000337,1.91096909999942,14.2867752223604,NaN,NaN,NaN,2
13,38,14,2,1,1,100,0.700301900000341,0.828634199999215,14.2867752223604,NaN,NaN,NaN,2
13,39,15,1,1,0,100,0.926853599999959,0.612480199999482,14.2867752223604,NaN,NaN,NaN,2
13,40,15,1,1,0,100,1.11441790000026,0.478158400000211,14.2867752223604,NaN,NaN,NaN,2
13,41,14,2,1,1,100,0.600008499999603,0.862176000000545,14.2867752223604,NaN,NaN,NaN,2
13,42,14,1,0,1,3.64583333333333,1.76588290000018,0.743489699999373,14.2867752223604,NaN,NaN,NaN,2
13,43,15,1,1,0,100,0.439277299999958,0.512589900000421,14.2867752223604,NaN,NaN,NaN,2
13,44,14,2,0,0,5.98958333333333,0.716253399999914,0.611474599999383,14.2867752223604,NaN,NaN,NaN,2
13,45,15,2,1,1,100,0.88351479999983,0.662649200000487,14.2867752223604,NaN,NaN,NaN,2
13,46,15,2,1,1,100,0.471573499999977,0.36280540000007,14.2867752223604,NaN,NaN,NaN,2
13,47,15,2,1,1,100,1.38188149999951,1.17929190000086,14.2867752223604,NaN,NaN,NaN,2
13,48,15,1,1,0,100,0.510143599999537,0.629052999999658,14.2867752223604,NaN,NaN,NaN,2
13,49,15,1,1,0,100,1.24943119999989,0.410972800000309,14.2867752223604,NaN,NaN,NaN,2
13,50,14,2,1,1,100,0.549357500000042,0.476176199999827,14.2867752223604,NaN,NaN,NaN,2
13,51,15,2,1,1,100,0.311399700000038,0.476150399999824,14.2867752223604,NaN,NaN,NaN,2
13,52,14,1,1,0,100,0.611971799999992,0.544832099999439,14.2867752223604,NaN,NaN,NaN,2
13,53,14,1,1,0,100,1.44962250000026,0.358516700000109,14.2867752223604,NaN,NaN,NaN,2
13,54,15,2,1,1,100,0.452741500000229,0.512393500000144,14.2867752223604,NaN,NaN,NaN,2
13,55,14,2,0,0,100,0.498840300000666,0.512542400000711,14.2867752223604,NaN,NaN,NaN,2
13,56,15,2,1,1,100,0.384085900000173,0.392270900000767,14.2867752223604,NaN,NaN,NaN,2
13,57,14,1,1,0,0,0.522172699999828,0.627511600000616,14.2867752223604,NaN,NaN,NaN,2
13,58,15,1,1,0,100,1.02634899999975,1.47729069999968,14.2867752223604,NaN,NaN,NaN,2
13,59,15,2,1,1,100,0.329502800000228,0.477910699999484,14.2867752223604,NaN,NaN,NaN,2
13,60,15,1,1,0,0,1.52627919999941,0.493054699999448,14.2867752223604,NaN,NaN,NaN,2
14,1,9,2,1,1,31.7708333333333,0.693847399999868,0.743794699999853,9.06221530468029,0.5891014044791,4.70870110043973,0.354628017980075,1
14,2,8,2,1,1,67.96875,0.74149369999941,0.737770699999601,8.08428706106389,0.583141482383258,4.51988062969854,0.35483280964703,1
14,3,7,2,0,0,60.4166666666667,0.833526899999924,1.89539460000015,11.2259035981159,0.586669795583817,3.98267558977804,0.354292856917554,1
14,4,11,2,1,1,84.1145833333333,0.459326899999724,2.23694590000014,10.5332508971149,0.581561901668202,3.89717565668111,0.354281291664576,1
14,5,10,2,0,0,55.7291666666667,1.21986149999975,0.915265999999974,13.0366751244732,0.583112386501219,3.28314712378113,0.349682772413475,1
14,6,13,2,1,1,100,0.200680599999032,0.542416399999638,12.5577551926752,0.574811141454336,3.28211435016686,0.348395302590401,1
14,7,12,2,1,1,54.6875,1.05046670000047,1.17636169999969,12.0674625145248,0.567009585383735,3.27372374585305,0.347964999194541,1
14,8,12,2,1,1,100,0.475106699999742,0.376490700000431,11.6109650625112,0.565987872105227,3.22551363684455,0.348475198738294,1
14,9,12,2,1,1,85.6770833333333,1.10697049999908,1.25548440000057,11.1961209533063,0.570339037781031,3.1479626810008,0.349614509052406,1
14,10,12,2,1,1,65.8854166666667,2.89517580000029,0.758806200001345,10.8261844776965,0.578595190601971,3.0514913994944,0.350934219871976,1
14,11,11,2,1,1,76.0416666666667,0.595776299998761,0.961699800000133,10.4487208053028,0.58123078649531,2.97877522624591,0.351356054978026,1
14,12,10,2,0,0,81.25,2.52049910000096,0.953327400000489,11.8306619013493,0.60809931628123,2.66117153805384,0.355039146250495,1
14,13,12,1,1,0,100,0.817132899999706,0.394182699999874,11.5296769541192,0.619653896412296,2.56928149458442,0.357091465471983,1
14,14,12,1,1,0,55.2083333333333,0.450405899999168,0.809806999999637,11.2624886385401,0.633516894601417,2.46928249272414,0.35848757546996,1
14,15,12,1,1,0,67.4479166666667,0.873701300000903,0.777065700000094,11.0278717404629,0.648738142999505,2.36662179011718,0.359050927084882,1
14,16,12,1,1,0,45.8333333333333,0.950124599999981,1.29028800000015,10.8236345860669,0.664569965206363,2.26563598328977,0.358733974916843,1
14,17,12,2,1,1,89.0625,0.566963400000532,1.97626160000073,10.6470510010716,0.680456067399607,2.16956148785152,0.357583841192113,1
14,18,9,2,0,0,29.4270833333333,1.64358919999904,0.656070799999725,11.1464130462558,0.763448037116704,1.85876585450738,0.344735452289022,1
14,19,12,2,1,1,71.6145833333333,0.459339299999556,0.75767530000121,10.9986243012422,0.781367682756312,1.74803281543259,0.340164510212819,1
14,20,12,1,1,0,30.2083333333333,0.477284599999621,0.376181300000098,10.873460778453,0.798410842307176,1.6455317029784,0.334853995752062,1
14,21,12,2,1,1,92.7083333333333,0.513462500000969,0.609542899999724,10.7678670527138,0.81440082162526,1.5524155711401,0.329025373548635,1
14,22,11,2,1,1,38.0208333333333,0.900056099999347,1.24482890000036,10.6435435366225,0.818571402844084,1.50107998371429,0.326635549329613,1
14,23,11,1,1,0,75.2604166666667,0.901984899999661,0.761714799999027,10.5299421368297,0.823264445401106,1.45227109413471,0.324019654056161,1
14,24,11,2,1,1,100,0.264337300000989,0.227094800000486,10.4266188785846,0.828335662560983,1.40667937586571,0.321234477063794,1
14,25,11,1,1,0,69.0104166666667,0.928433800001585,1.1770265999985,10.3329952894701,0.833661031128017,1.36480038736227,0.318329137967295,1
14,26,10,1,0,1,57.03125,0.310213200000362,1.32834470000125,10.7227007366112,0.885484938349156,1.21375766246463,0.302698770275374,1
14,27,11,1,1,0,76.8229166666667,0.279402999998638,0.627185600000303,10.6387508985832,0.890986659344805,1.16630573688568,0.299278453180896,1
14,28,11,1,1,0,100,0.255474800000229,0.272213599999304,10.5624417442229,0.896598305353326,1.12238841669406,0.295736036232782,1
14,29,11,1,1,0,91.40625,2.30838609999955,0.839004999999815,10.4932516777078,0.90224634062328,1.08221614523906,0.292116614924714,1
14,30,11,1,1,0,79.4270833333333,0.686728299999231,0.843325499999992,10.4306324707113,0.907871199979278,1.04587215486911,0.288458595051669,1
14,31,11,1,0,1,64.0625,1.09630730000026,1.06103629999961,10.8157969234268,0.87007348220112,1.1746201057282,0.3096196104707,1
14,32,12,1,1,0,77.6041666666667,0.801966799999718,2.64318329999878,10.7641099788121,0.884260854027516,1.10646557457738,0.301754797878927,1
14,33,12,2,1,1,77.6041666666667,0.783486499998617,0.728085400000055,10.7207702137792,0.897235385346802,1.04639398639421,0.293984656772991,1
14,34,11,1,0,1,68.2291666666667,0.244731499999034,0.744151200000488,11.0563999877462,0.880855959174547,1.1312680875435,0.306566053753597,1
14,35,12,1,1,0,74.21875,1.01367280000159,0.626750399998855,11.0016086081228,0.895314087432573,1.06166024084036,0.298443125407996,1
14,36,12,2,0,0,55.2083333333333,2.98149009999906,0.0107745000004797,11.4815868533307,0.7582882355027,1.48257086304112,0.342865762414096,1
14,37,13,2,1,1,100,0.213584499999342,0.341453099999853,11.3987145965983,0.778687510332756,1.39048796226255,0.336164565182407,1
14,38,13,1,1,0,NaN,0.31724209999993,5.00916270000016,11.3282433277018,0.797626655050392,1.30512366905382,0.328928355989756,1
14,39,13,1,1,0,100,0.648233600000822,0.859948900000745,11.2686448976007,0.815117770027458,1.22692457266258,0.321352507997801,1
14,40,13,1,1,0,89.84375,1.75059350000083,0.642313099999228,11.2184747070339,0.831207601227909,1.15603817952157,0.313603295787703,1
14,41,12,2,1,1,100,1.11471019999954,0.426833800000168,11.1599484755476,0.844451477110262,1.09903273962093,0.30804617121568,1
14,42,12,2,1,1,86.1979166666667,0.672289300000557,1.19412539999939,11.1083416688511,0.857018563936688,1.04677926434137,0.302341389799046,1
14,43,12,2,1,1,100,0.815180900000996,0.810244300000704,11.0629013746514,0.868905009776451,0.999246162388238,0.296555746013975,1
14,44,12,2,1,1,100,0.333411699999488,0.328563099999883,11.0229228860664,0.880119416217769,0.956293500185765,0.290746718891955,1
14,45,12,2,1,1,53.125,1.59302490000118,0.644346600000063,10.9877568827392,0.890679660710698,0.917697146729875,0.28496262637576,1
14,46,12,2,1,1,100,0.492904099999578,0.327039699999659,10.956812869468,0.900610226154464,0.883172072168866,0.279243151982874,1
14,47,10,1,1,0,100,0.705033900001581,0.343991700001425,10.8862845719691,0.876325091138169,0.927360060121824,0.288714275244627,1
14,48,10,2,0,0,62.5,1.61658349999925,0.725874200001272,11.0548033894907,0.93165089784761,0.795875112922579,0.261171958945761,1
14,49,12,1,1,0,72.65625,0.698956500000349,0.859452300001067,11.0272546177508,0.940648971902415,0.76273763337013,0.254965041920514,1
14,50,12,2,1,1,100,1.10193620000064,0.442329800000152,11.0028773473621,0.949048457105604,0.733248993037213,0.248943398484587,1
14,51,11,2,1,1,58.3333333333333,1.87565189999987,0.7739246000001,10.9569623175766,0.946375272422885,0.729679417273092,0.249609032094172,1
14,52,11,1,1,0,75.5208333333333,1.47374590000072,1.71789659999922,10.9122078511107,0.944088856857081,0.72617866353641,0.250117609548221,1
14,53,11,2,1,1,63.8020833333333,2.48817599999893,2.62755620000098,10.868704389939,0.942182779739662,0.722778553624778,0.250481720333296,1
14,54,11,2,1,1,9.11458333333333,0.919180900000356,0.576342000000295,10.8265257626852,0.940647343721763,0.719506125650835,0.250712976457837,1
14,55,11,2,1,1,19.0104166666667,1.12558940000054,0.527222599999732,10.7857296405158,0.939470108925992,0.71638299938937,0.250821932549001,1
14,56,10,1,0,1,29.4270833333333,1.35774900000069,0.892536600000312,10.9163288868731,0.982492375350749,0.61081808428605,0.222935789552955,1
14,57,11,1,1,0,100,0.299720999999408,0.110947700000906,10.8801215134176,0.981916060744726,0.605442883745777,0.222902991816457,1
14,58,11,2,0,0,14.0625,2.24300649999896,0.543038800000431,11.0439312222222,0.983308997150075,0.602640345002022,0.223576660338687,1
14,59,12,2,1,1,100,0.000111600000309409,1.00907650000045,11.0268097887094,0.990356874676529,0.579112261079407,0.217630097521483,1
14,60,12,1,1,0,75.2604166666667,0.482413300000189,0.309653399999661,11.0115063429145,0.996909203661533,0.558273508385625,0.211952905101232,1
14,61,11,2,1,1,100,0.252297499999258,0.255219299999226,10.9785603716325,0.995276413049679,0.555306471503702,0.212512530093115,1
14,62,11,1,1,0,57.2916666666667,0.329697500001203,0.477638299998944,10.9463945600687,0.993876288598491,0.552499587432311,0.212962039709134,1
14,63,11,1,1,0,100,0.106380299999728,0.310552900000403,10.9150432435073,0.992704760726901,0.549859141932877,0.213307315492319,1
14,64,11,1,1,0,100,0.365038399999321,0.212262699998973,10.884534097657,0.991756371905492,0.547388106638467,0.213553966951944,1
14,65,11,1,1,0,79.9479166666667,0.364337400000295,0.810001799998645,10.8548883992237,0.991024477116438,0.545086288942139,0.213707298869461,1
14,66,11,2,1,1,100,0.281593000001521,0.294283799999903,10.8261213744729,0.990501439000865,0.542950573128128,0.213772296202646,1
14,67,11,1,1,0,91.9270833333333,1.09591360000013,0.843095999998695,10.7982426137363,0.990178813773998,0.540975231696983,0.213753623184285,1
14,68,11,2,1,1,100,0.306864100000894,0.371782099999109,10.7712565313294,0.99004752495613,0.539152286189797,0.213655633345398,1
14,69,11,2,1,1,86.9791666666667,0.516742099998737,0.97417040000073,10.7451628522808,0.990098022863732,0.537471897984484,0.213482387467111,1
14,70,11,1,1,0,74.4791666666667,0.254788099999132,0.474879700001111,10.7199571095009,0.990320428610486,0.535922771298781,0.213237676827723,1
14,71,10,1,1,0,71.875,1.49954849999995,1.0587846999988,10.6781811889566,0.975522944718952,0.563425807279114,0.2222463394591,1
14,72,10,1,1,0,80.46875,0.200082299999849,0.875700799999322,10.63374835954,0.959940441649661,0.59235327546558,0.231022477801207,1
14,73,10,2,1,1,4.94791666666667,2.1702021000001,1.02468770000087,10.5866411333746,0.943647125074902,0.622466317200947,0.239464722536222,1
14,74,9,1,0,1,22.3958333333333,1.33265639999991,0.541439499998887,10.6745740886637,0.986204939135373,0.508155859391115,0.206244181274258,1
14,75,11,2,1,1,87.2395833333333,1.21933309999986,0.527440299998489,10.6519639784888,0.987296891471688,0.504944156736117,0.205476937665163,1
14,76,11,2,1,1,100,0.550623299999643,0.776173899999776,10.630222215114,0.988517678472016,0.501872463819218,0.204661766039952,1
14,77,11,1,0,1,73.1770833333333,0.756892199999129,0.75892439999916,10.7579834800304,0.98033398355497,0.500898338126308,0.209661328628163,1
14,78,10,2,0,0,100,0.480344999999943,0.277414100000897,10.8381854979263,1.01147802941102,0.437813204621251,0.187720747533019,1
14,79,11,1,0,1,33.59375,0.987724499998876,0.608319799999663,10.9479657268102,1.00899713039075,0.44013866798135,0.190337852022795,1
14,80,12,1,1,0,94.7916666666667,0.000153999999383814,1.22610170000007,10.9394482985591,1.01430350749553,0.426868255872158,0.185540240388669,1
14,81,11,1,1,0,100,1.12328270000035,1.61078459999953,10.9174557124604,1.01403136583598,0.423478782162221,0.185381572001845,1
14,82,11,1,0,1,92.96875,0.324367499999425,0.808734099999128,11.0167270752771,1.01470561844069,0.424073830345653,0.186347915981591,1
14,83,12,1,1,0,100,0.292190899999696,0.37743269999919,11.0077234952488,1.01995217412586,0.410496960906829,0.181537454621948,1
14,84,12,1,1,0,87.5,0.290905500000008,0.678368099999716,10.9995268126493,1.02485480394292,0.398448417938186,0.176980635326247,1
14,85,12,2,1,1,83.3333333333333,1.00056039999981,0.64468560000023,10.9920319438276,1.0294424898884,0.387733327445886,0.172665939304985,1
14,86,11,1,1,0,39.84375,1.40369199999986,0.877391200001512,10.9718547719428,1.02858457895637,0.385833822080309,0.172903635351844,1
14,87,11,2,1,1,21.09375,0.791657100000521,0.576294999998936,10.952095659923,1.02783701560495,0.38405578827479,0.173089973990246,1
14,88,11,1,0,1,78.6458333333333,1.14783560000069,0.493431199998668,11.0386275385269,1.0307004831864,0.37950612010678,0.17244598700436,1
14,89,12,2,1,1,74.7395833333333,0.304194399999687,0.794054400001187,11.0312954214299,1.03514235150181,0.36922494241108,0.168211944863559,1
14,90,12,1,1,0,83.0729166666667,1.80406289999883,0.860840999999709,11.0245397332297,1.03930797688692,0.36005583709533,0.16420469540786,1
14,91,12,1,1,0,96.09375,0.434688800000004,0.543530499999179,11.0182891857093,1.04322018243861,0.351852917157584,0.16041208282323,1
14,92,11,2,0,0,23.4375,1.1611013999991,0.427324800000861,11.0945437974314,1.04797562142219,0.345087213846353,0.158259088060669,1
14,93,12,1,1,0,54.4270833333333,0.263597999999547,0.0109219999994821,11.0876730266631,1.05175935380382,0.336658371156925,0.154489029839585,1
14,94,12,1,1,0,100,0.236146600000211,0.356861899999785,11.0812754913883,1.05531622848497,0.329126577303041,0.150925835140592,1
14,95,12,2,1,1,100,0.306937400000606,0.327183100000184,11.0752963545038,1.05866480927731,0.322372826873936,0.147557075805022,1
14,96,11,2,1,1,100,0.675866499999756,0.392425599999115,11.0582176661729,1.05722140793445,0.322094312942407,0.148312865848484,1
14,97,11,1,1,0,100,1.15829499999927,0.258078000000751,11.041367038612,1.05585140955728,0.321850130403785,0.149023476505356,1
14,98,11,1,1,0,100,0.345626000000266,0.159007800000836,11.0247534208818,1.05455543370978,0.321639063263257,0.149689922889723,1
14,99,11,1,1,0,72.3958333333333,0.283643099999608,0.910593399999925,11.0083850994983,1.05333371243147,0.321460792458385,0.150313278811357,1
14,100,11,2,0,0,6.25,0.450085500000569,0.32658789999914,11.0765941627615,1.0581909735188,0.31301689739708,0.147728576906428,1
14,1,8,2,0,0,41.6666666666667,1.81677080000009,3.1984121000005,12.5250756632574,NaN,NaN,NaN,2
14,2,12,2,0,0,25.2604166666667,2.99836229999892,1.49387309999838,12.5250756632574,NaN,NaN,NaN,2
14,3,8,1,0,1,65.625,2.18153609999899,0.87255130000085,12.5250756632574,NaN,NaN,NaN,2
14,4,14,1,1,0,100,1.2009364000005,0.610281699999177,12.5250756632574,NaN,NaN,NaN,2
14,5,12,2,1,1,100,1.29406670000026,0.683652899999288,12.5250756632574,NaN,NaN,NaN,2
14,6,12,2,1,1,65.1041666666667,0.995483900000181,1.95885389999967,12.5250756632574,NaN,NaN,NaN,2
14,7,13,2,1,1,89.5833333333333,2.92868290000115,1.27734910000072,12.5250756632574,NaN,NaN,NaN,2
14,8,13,2,1,1,100,0.990186099999846,0.459107099999528,12.5250756632574,NaN,NaN,NaN,2
14,9,11,1,1,0,57.8125,1.05105010000079,1.65968969999994,12.5250756632574,NaN,NaN,NaN,2
14,10,13,1,1,0,84.6354166666667,1.61900030000106,1.09430409999914,12.5250756632574,NaN,NaN,NaN,2
14,11,11,2,0,0,46.09375,1.51115230000141,1.07619469999918,12.5250756632574,NaN,NaN,NaN,2
14,12,13,2,1,1,100,0.704158300000927,0.473684700000376,12.5250756632574,NaN,NaN,NaN,2
14,13,12,2,1,1,100,1.21804840000004,0.37711870000021,12.5250756632574,NaN,NaN,NaN,2
14,14,13,1,1,0,100,2.77101460000085,0.428354900001068,12.5250756632574,NaN,NaN,NaN,2
14,15,12,2,1,1,80.7291666666667,0.63053039999977,1.16125380000085,12.5250756632574,NaN,NaN,NaN,2
14,16,12,1,1,0,93.75,2.0057113999992,0.977317299999413,12.5250756632574,NaN,NaN,NaN,2
14,17,12,1,1,0,68.4895833333333,1.83345279999958,0.994091200000184,12.5250756632574,NaN,NaN,NaN,2
14,18,12,1,1,0,100,1.11673089999931,0.379614100000254,12.5250756632574,NaN,NaN,NaN,2
14,19,12,1,1,0,94.7916666666667,0.852054799999678,0.811644100000194,12.5250756632574,NaN,NaN,NaN,2
14,20,11,2,0,0,32.2916666666667,2.73731659999976,0.745165500000439,12.5250756632574,NaN,NaN,NaN,2
14,21,12,1,1,0,71.09375,2.06193940000048,1.1107979999997,12.5250756632574,NaN,NaN,NaN,2
14,22,13,2,1,1,100,1.31783259999975,0.595643399999972,12.5250756632574,NaN,NaN,NaN,2
14,23,12,2,1,1,96.6145833333333,0.408127499998955,0.742064699999901,12.5250756632574,NaN,NaN,NaN,2
14,24,12,1,1,0,48.1770833333333,0.435543300000063,1.94248130000051,12.5250756632574,NaN,NaN,NaN,2
14,25,11,1,1,0,87.7604166666667,0.586613999999827,0.724230399999215,12.5250756632574,NaN,NaN,NaN,2
14,26,12,1,0,1,52.0833333333333,0.57633530000021,0.826763799999753,12.5250756632574,NaN,NaN,NaN,2
14,27,11,2,1,1,100,0.711992599999576,0.644718700001249,12.5250756632574,NaN,NaN,NaN,2
14,28,11,2,0,0,100,1.45685830000002,0.395605899999282,12.5250756632574,NaN,NaN,NaN,2
14,29,12,2,1,1,71.3541666666667,0.561728900000162,1.75667350000003,12.5250756632574,NaN,NaN,NaN,2
14,30,13,1,1,0,100,0.571041500001229,0.378605799998695,12.5250756632574,NaN,NaN,NaN,2
14,31,13,2,1,1,100,1.07901929999935,0.442987799999173,12.5250756632574,NaN,NaN,NaN,2
14,32,12,1,0,1,69.0104166666667,1.18746219999957,0.59231120000004,12.5250756632574,NaN,NaN,NaN,2
14,33,13,2,1,1,59.375,0.751870000000054,1.56306029999905,12.5250756632574,NaN,NaN,NaN,2
14,34,13,1,1,0,100,1.21676459999981,0.406085200000234,12.5250756632574,NaN,NaN,NaN,2
14,35,13,1,1,0,70.3125,1.15692619999936,1.34492150000005,12.5250756632574,NaN,NaN,NaN,2
14,36,13,1,0,1,67.4479166666667,1.15007049999986,1.21138380000048,12.5250756632574,NaN,NaN,NaN,2
14,37,12,2,1,1,47.3958333333333,1.43035579999923,1.79605389999961,12.5250756632574,NaN,NaN,NaN,2
14,38,12,1,0,1,84.1145833333333,0.696663300001092,0.846730900000694,12.5250756632574,NaN,NaN,NaN,2
14,39,14,2,1,1,100,0.336213200000202,0.31152160000056,12.5250756632574,NaN,NaN,NaN,2
14,40,13,1,0,1,0,2.56659650000074,0.493541399999231,12.5250756632574,NaN,NaN,NaN,2
14,41,13,2,1,1,100,0.676850599998943,0.493375299998661,12.5250756632574,NaN,NaN,NaN,2
14,42,14,2,1,1,87.2395833333333,0.601618200000303,1.74460080000063,12.5250756632574,NaN,NaN,NaN,2
14,43,14,2,1,1,100,0.409570499999973,0.341335699999036,12.5250756632574,NaN,NaN,NaN,2
14,44,13,1,1,0,100,0.533449599999585,0.594867100000556,12.5250756632574,NaN,NaN,NaN,2
14,45,13,1,1,0,92.1875,0.758124600000883,0.876057800000126,12.5250756632574,NaN,NaN,NaN,2
14,46,13,2,1,1,100,0.94863069999883,1.29432249999991,12.5250756632574,NaN,NaN,NaN,2
14,47,13,1,0,1,33.8541666666667,1.82274959999995,0.893310400000701,12.5250756632574,NaN,NaN,NaN,2
14,48,13,2,1,1,80.9895833333333,0.419878500000777,1.09328780000033,12.5250756632574,NaN,NaN,NaN,2
14,49,13,1,1,0,100,0.330137900000409,0.345195399999284,12.5250756632574,NaN,NaN,NaN,2
14,50,14,2,1,1,100,0.691624600000068,0.312046400000327,12.5250756632574,NaN,NaN,NaN,2
14,51,13,2,1,1,100,1.14800259999902,0.643437699998685,12.5250756632574,NaN,NaN,NaN,2
14,52,13,1,1,0,100,2.26298010000028,0.792719500001112,12.5250756632574,NaN,NaN,NaN,2
14,53,13,1,1,0,75.78125,0.57060569999885,0.577361899999232,12.5250756632574,NaN,NaN,NaN,2
14,54,13,2,1,1,100,0.466766699999425,0.361488200000167,12.5250756632574,NaN,NaN,NaN,2
14,55,13,1,1,0,20.3125,0.558590300001015,0.62862160000077,12.5250756632574,NaN,NaN,NaN,2
14,56,13,1,1,0,100,1.02332359999855,0.327620199999728,12.5250756632574,NaN,NaN,NaN,2
14,57,13,1,1,0,85.6770833333333,0.342687899999873,0.611517499999536,12.5250756632574,NaN,NaN,NaN,2
14,58,13,1,1,0,79.6875,0.389389799998753,0.97203140000056,12.5250756632574,NaN,NaN,NaN,2
14,59,13,2,1,1,72.65625,0.981839600000967,0.960448800000449,12.5250756632574,NaN,NaN,NaN,2
14,60,13,2,1,1,100,1.1453677999998,0.393977699999596,12.5250756632574,NaN,NaN,NaN,2
15,1,9,1,0,1,6.51041666666667,1.20024010000088,4.07672569999886,13.2233155461709,0.642167636776251,3.49492450890748,0.351591253347667,1
15,2,13,2,1,1,100,0.650112999999692,0.690039799999795,12.6705353395783,0.629471755428903,3.55012555364092,0.352134493147143,1
15,3,12,2,1,1,5.98958333333333,2.29343770000014,1.92227880000064,12.0908055684688,0.61724669385342,3.59650293502651,0.35331602561588,1
15,4,12,1,1,0,7.03125,1.07412639999893,1.90626680000059,11.5425366637203,0.6124302905529,3.58635642707102,0.354665899196843,1
15,5,12,2,1,1,72.65625,0.807502099998601,1.42478819999997,11.0415908558404,0.613753848813601,3.53263644227608,0.356152496697657,1
15,6,11,1,1,0,20.5729166666667,1.527124799999,1.55802199999926,10.5295651570652,0.611189276551783,3.49681883302969,0.357374974973244,1
15,7,10,1,1,0,10.6770833333333,1.76618439999947,2.54383730000154,9.99980824004615,0.60052521228382,3.49782135546223,0.357353231679114,1
15,8,9,2,1,1,100,0.580626199998733,0.693899500000043,9.44019172760793,0.580475688221716,3.54057549877446,0.355462299718679,1
15,9,8,1,0,1,68.75,0.813655799998742,1.55871910000133,10.9936353657492,0.643115912950489,2.83461258143651,0.354978587461396,1
15,10,11,1,1,0,0,1.59813420000137,0.710895299998811,10.6359046993852,0.65245689652016,2.72660252136334,0.356284556832356,1
15,11,11,2,1,1,61.9791666666667,0.979784399998607,1.19426259999818,10.3213026627806,0.664487916430037,2.60795324310873,0.356861437574428,1
15,12,11,1,1,0,37.7604166666667,0.625677799998812,2.31096940000134,10.048851032816,0.678108893838926,2.4868982472957,0.356604924190254,1
15,13,10,2,1,1,0,1.28340899999966,0.845252600000094,9.76920252497034,0.680254005427169,2.41901049752476,0.356795345428065,1
15,14,10,1,1,0,13.0208333333333,2.53145190000214,1.74292009999772,9.51467250424469,0.684566010278897,2.3471143569421,0.356672015113985,1
15,15,10,2,1,1,77.8645833333333,0.584573599997384,0.794394500000635,9.28582057192019,0.690474531169793,2.27524764787595,0.356245402848075,1
15,16,8,1,1,0,88.8020833333333,0.572109500000806,1.65977919999932,8.99632081740485,0.652120735813104,2.38043075396906,0.357043668800114,1
15,17,8,1,0,1,0,1.9594036999988,1.07776680000097,9.77410078836533,0.737756023381735,1.94319628424483,0.347291119520537,1
15,18,10,1,0,1,6.77083333333333,1.55496149999817,1.12697889999981,10.7135255871115,0.686914206657158,2.14515531548328,0.351285805932794,1
15,19,11,1,1,0,23.9583333333333,1.09176030000162,0.828068500002701,10.5060711343375,0.704195998227609,2.02134806635521,0.349877965511347,1
15,20,11,2,1,1,100,0.494232799999736,0.677377200001501,10.3260977054388,0.721715555299581,1.90033657882146,0.347482563368206,1
15,21,11,1,1,0,73.1770833333333,0.949905199999193,1.0894902,10.1711789126393,0.739000878563438,1.78511020300229,0.34421936163655,1
15,22,11,2,1,1,27.0833333333333,0.560742500001652,1.91089300000021,10.0386412871697,0.755722145930587,1.67778400944958,0.340242498990911,1
15,23,11,1,0,1,61.4583333333333,1.56416800000079,1.60980390000259,10.9478277202984,0.627289232490301,2.111789986438,0.349101446135042,1
15,24,12,2,1,1,0,1.63345160000245,0.661405400001968,10.778321187061,0.647674566125179,1.99520539804949,0.34824889760208,1
15,25,12,1,0,1,23.9583333333333,1.01681720000124,2.02563319999899,11.9291155440726,0.491881718356254,2.42826801958815,0.322886320706697,1
15,26,13,2,1,1,100,0.381170799999381,0.642306599998847,11.7221304814963,0.508875915225688,2.34199526987142,0.326445609411918,1
15,27,13,1,1,0,37.2395833333333,1.73111179999978,1.62155530000018,11.5334518210457,0.526592722373007,2.25132250360464,0.329267833143821,1
15,28,13,1,1,0,93.4895833333333,0.684415400002763,0.726183700000547,11.3628232775047,0.544636618644631,2.1585044011724,0.331247178456754,1
15,29,13,2,1,1,61.71875,2.06674049999856,2.04220569999961,11.2096856565987,0.562686128522573,2.06560545773736,0.33235722567548,1
15,30,13,1,1,0,100,0.433421699999599,0.660708300001716,11.0732188029247,0.580486490490132,1.97443595130379,0.332627440995997,1
15,31,13,1,1,0,40.1041666666667,0.516670799999702,3.62121020000268,10.9523975910139,0.597842212157216,1.88650811524075,0.332123832461457,1
15,32,12,1,1,0,58.59375,0.933448100000533,2.47346349999862,10.8231571462244,0.612473373453198,1.80965359146665,0.332158117407949,1
15,33,12,2,1,1,69.0104166666667,0.380015999999159,1.16196839999975,10.7070231176323,0.62707421467235,1.73548563612252,0.331704800935612,1
15,34,12,2,1,1,100,0.379584700000123,0.584163399998943,10.6031748256948,0.64149997961941,1.66492690598931,0.33079138592297,1
15,35,12,2,1,1,59.6354166666667,0.610164499998064,1.00980479999998,10.5107102984913,0.655637110249289,1.5986628657859,0.329457124632913,1
15,36,11,2,1,1,58.8541666666667,0.816761199999746,1.30777789999775,10.3975366098025,0.660979690853065,1.55664422250664,0.329039989148521,1
15,37,11,1,1,0,64.0625,0.733496000000741,0.590069599998969,10.2922383760676,0.667191392578923,1.51509253124369,0.32866395541604,1
15,38,11,2,0,0,28.6458333333333,1.31420929999877,0.588241299999936,10.8593325037296,0.626848052396035,1.61942079319719,0.327954930311128,1
15,39,13,2,1,1,79.1666666666667,1.05009569999675,1.0268204999993,10.7889705184408,0.642522793000199,1.55109357181239,0.325678873990799,1
15,40,13,2,1,1,88.0208333333333,0.325429900000017,0.957213800000318,10.7280183040895,0.657431093278865,1.48850852554032,0.322992595500654,1
15,41,9,2,1,1,84.1145833333333,0.666177400002198,2.61083960000178,10.6066818834523,0.621932181456883,1.54735026488969,0.32267753700523,1
15,42,9,2,1,1,85.9375,0.858315599998605,1.02202490000127,10.4756809286872,0.587845568941327,1.60049820375728,0.320221358565291,1
15,43,9,1,1,0,25,1.13496170000144,1.02711850000196,10.3367171338453,0.555749497431704,1.64691244468103,0.316023129809758,1
15,44,9,1,0,1,33.3333333333333,1.64445060000071,0.776826600002096,10.6883552507193,0.627710919864385,1.49059373255006,0.317575609188594,1
15,45,12,2,1,1,74.7395833333333,0.636794100002589,0.923622300000716,10.6153061591205,0.640216636902511,1.4360430284674,0.316257039853683,1
15,46,9,1,1,0,60.4166666666667,1.0334354000006,1.50448849999884,10.5018687953128,0.607699660266025,1.48344164998121,0.314882771116095,1
15,47,9,1,0,1,41.6666666666667,0.660614100001112,1.87766810000176,10.7708827718586,0.676789944838348,1.34670972211609,0.310585073502884,1
15,48,12,2,1,1,58.0729166666667,0.56788499999675,2.19398530000035,10.7056298877335,0.689599859868181,1.29211968738674,0.308077216920188,1
15,49,12,1,1,0,64.84375,1.21934009999677,1.32289470000251,10.647295091369,0.702010632457171,1.24159872003331,0.305342729256522,1
15,50,12,2,1,1,30.2083333333333,1.46627789999911,1.44400730000052,10.5952528955525,0.713994799569912,1.19518232814794,0.302419763342535,1
15,51,9,1,0,1,39.84375,1.46944069999881,0.843781100000342,10.7809915932618,0.777033380421051,1.07069588704008,0.287102464061786,1
15,52,12,2,1,1,93.2291666666667,0.512742499999149,0.722997299999406,10.7354157802377,0.788373298682625,1.02600301969696,0.282780496237291,1
15,53,12,2,1,1,83.59375,0.409292100001039,1.12512950000018,10.6948637662804,0.799164965475492,0.985479645076098,0.278421127933112,1
15,54,11,2,1,1,34.8958333333333,1.8809411000002,1.1429470999974,10.6329182153925,0.801055537279062,0.964634571783895,0.276850680506302,1
15,55,11,1,1,0,68.4895833333333,0.519243700000516,1.75954900000215,10.5741002281315,0.803542100732815,0.944188520003582,0.275291061692571,1
15,56,11,2,0,0,22.9166666666667,1.15409799999907,0.966487000001507,10.8776135700032,0.787081415975991,0.992532864023532,0.283034419665828,1
15,57,12,2,1,1,66.1458333333333,1.36255170000004,2.79356419999749,10.8385663230588,0.797739303886521,0.952941876987519,0.278778222901444,1
15,58,12,1,1,0,61.4583333333333,1.02319659999921,1.54444869999861,10.8037020546196,0.807901407036888,0.917051550590893,0.274508722009365,1
15,59,12,2,1,1,100,0.566709499998979,0.710683999997855,10.7725687260283,0.81757816512674,0.884655898198061,0.270253289336886,1
15,60,10,1,1,0,95.5729166666667,2.00011019999874,1.57743459999983,10.7038366850302,0.798962074889549,0.905762327180122,0.273110263570911,1
15,61,10,2,0,0,78.6458333333333,1.33346119999987,1.64408919999914,10.8873846080146,0.845530550441706,0.825703902259538,0.261658880702059,1
15,62,12,1,1,0,14.0625,1.85027940000145,0.876934700001584,10.8591319340296,0.854720125957274,0.794540654847967,0.256973920008541,1
15,63,12,2,1,1,65.8854166666667,1.27557959999831,1.21050910000122,10.8338519010884,0.863424420910111,0.7665580392979,0.252379250378568,1
15,64,10,1,1,0,54.4270833333333,2.14074479999908,1.90942780000114,10.7755447854734,0.845561999991473,0.787225392041358,0.256526122213021,1
15,65,10,1,1,0,59.375,1.95678229999976,2.67567820000113,10.7154410098553,0.828034332683858,0.806790063251652,0.260006056779623,1
15,66,10,1,1,0,55.2083333333333,1.40580770000088,1.55943900000057,10.6538543887967,0.810997623705524,0.825112359944859,0.262866757862318,1
15,67,10,2,1,1,75,0.550050800000463,1.90993060000255,10.5911088940929,0.794587003471398,0.842098147221129,0.265172595025765,1
15,68,9,2,0,0,47.1354166666667,1.31672249999974,1.41057749999891,10.7108243439887,0.845689719605504,0.745576516333523,0.245546519166169,1
15,69,11,2,0,0,45.8333333333333,1.61456629999884,1.49220010000136,10.9229815520613,0.839854601279424,0.773338598234219,0.252669045549498,1
15,70,12,2,1,1,86.1979166666667,0.439501599998039,1.03684620000058,10.8968734218556,0.848676444101682,0.74387420006798,0.248181428761378,1
15,71,12,1,0,1,54.1666666666667,0.500083300001279,2.27863309999884,11.1312690230231,0.765123112122773,0.937903702105919,0.27472731711736,1
15,72,13,2,1,1,100,0.471251999999367,0.726388499999302,11.1028939458062,0.776945314170588,0.893805837528708,0.26923290792044,1
15,73,13,1,1,0,100,0.351306900000054,0.727594699998008,11.0784371960361,0.787970675413195,0.854243666542217,0.263809879050489,1
15,74,13,2,1,1,99.4791666666667,0.29606000000058,0.760711399998399,11.057379730976,0.798248236989225,0.818922648169726,0.258497314696455,1
15,75,12,2,1,1,60.4166666666667,0.468522799998027,2.93863559999954,11.0271099113304,0.806505573648597,0.790929930260576,0.254876911280879,1
15,76,12,1,1,0,41.9270833333333,0.601264799999626,2.02832359999957,10.999395027367,0.814463755774938,0.765343932737471,0.251295675082719,1
15,77,12,1,0,1,0,2.16677429999982,0.839038199999777,11.2175103651187,0.748625281628041,0.913592234092546,0.271014351780509,1
15,78,13,2,1,1,89.5833333333333,1.18144620000021,1.54445919999853,11.1917184740337,0.760072530802265,0.874757261997881,0.266201706855135,1
15,79,13,2,1,1,100,0.450856899999053,0.710740200000146,11.1693247116708,0.770835300327817,0.839783270564362,0.26141801892593,1
15,80,13,2,1,1,65.1041666666667,0.40178989999913,3.97744500000044,11.149904902474,0.780948659515865,0.808418274263238,0.256697577260178,1
15,81,13,2,1,1,92.96875,0.541191700001946,0.576008000000002,11.1330784185469,0.790449207607019,0.780386502673479,0.252067872355955,1
15,82,10,1,0,1,39.0625,0.52552089999881,0.977420799998072,11.2512641647549,0.835256522608174,0.712611762607497,0.24062588509117,1
15,83,13,2,1,1,68.75,0.350035700001172,0.674173300001712,11.2367309703074,0.843643812574055,0.687393177340177,0.235674990109002,1
15,84,10,1,1,0,60.6770833333333,0.698661400001583,1.15897680000126,11.1910214812218,0.824156366725072,0.709759851429718,0.239621449292496,1
15,85,10,2,1,1,82.03125,0.96903089999978,2.04144580000138,11.1434831284724,0.804757283950522,0.73152758377682,0.242921548634085,1
15,86,10,2,1,1,0,0.733022199998231,0.71135630000208,11.0942926236692,0.785599553423111,0.752537556836475,0.245599669007264,1
15,87,10,1,0,1,11.1979166666667,2.29518839999946,1.60697129999971,11.2084714513373,0.827931913213298,0.691589644766514,0.23537141179639,1
15,88,13,1,1,0,13.0208333333333,0.375056999997469,0.927774499999941,11.1950218253376,0.8359428414262,0.668325609007214,0.230669599772774,1
15,89,10,1,1,0,75.5208333333333,0.409519299999374,1.17657989999861,11.150956273627,0.81768909224809,0.687904280696753,0.23402774844918,1
15,90,10,1,1,0,67.4479166666667,0.361462199998641,1.09056100000089,11.1054734128069,0.799617482822838,0.706905064840935,0.236851703685072,1
15,91,10,2,1,1,65.8854166666667,1.5655141999996,2.86119859999963,11.0587262728828,0.781847132441871,0.725222713058923,0.23917212902728,1
15,92,10,1,0,1,57.03125,0.665147399999114,1.45896499999799,11.1686211898979,0.821727176344342,0.670394835384897,0.22993774112085,1
15,93,13,1,1,0,82.03125,1.06190700000298,1.40997940000307,11.15616523383,0.829364849301279,0.648960346738516,0.225463347681464,1
15,94,10,1,0,1,0,0.783427700000175,1.294138199999,11.2462441892358,0.865666819986486,0.601066070546003,0.214721987530852,1
15,95,12,2,0,0,10.9375,0.483423999998195,1.14317999999912,11.416530054061,0.825733696177328,0.689797144244562,0.232607684979984,1
15,96,13,2,1,1,91.40625,0.483461600000737,2.39014959999986,11.3989551578774,0.834385994923105,0.661934140467832,0.227706304896409,1
15,97,13,1,1,0,70.8333333333333,1.42250219999914,1.51017630000206,11.3834988766758,0.842481421461984,0.637144849713421,0.222995312824686,1
15,98,13,2,1,1,84.6354166666667,0.300064999999449,0.906367999999929,11.3698864023553,0.85006056855983,0.615157225441989,0.218482564741545,1
15,99,13,1,1,0,32.03125,0.385311699999875,1.50820390000081,11.3578764222239,0.857162154919282,0.595700674697406,0.214171723860928,1
15,100,10,1,1,0,30.7291666666667,1.77270019999924,1.03748750000159,11.3204161766981,0.839629422714247,0.613933080698342,0.217823964318574,1
15,1,8,2,0,0,38.5416666666667,2.10430389999965,1.57450449999669,11.6599694204097,NaN,NaN,NaN,2
15,2,8,1,1,0,82.8125,0.738406799999211,2.04018189999988,11.6599694204097,NaN,NaN,NaN,2
15,3,12,2,1,1,87.5,0.427235199997085,0.807660600003146,11.6599694204097,NaN,NaN,NaN,2
15,4,8,1,0,1,0,0.376110400000471,0.812794100002066,11.6599694204097,NaN,NaN,NaN,2
15,5,12,1,1,0,66.1458333333333,0.450233200001094,2.06975989999773,11.6599694204097,NaN,NaN,NaN,2
15,6,11,2,1,1,67.1875,0.483430500000395,1.41071559999909,11.6599694204097,NaN,NaN,NaN,2
15,7,11,2,0,0,32.8125,0.700149899999815,1.35814300000129,11.6599694204097,NaN,NaN,NaN,2
15,8,11,2,1,1,86.1979166666667,0.664763999997376,0.960069000000658,11.6599694204097,NaN,NaN,NaN,2
15,9,11,1,1,0,86.9791666666667,0.40036119999786,0.978496599997015,11.6599694204097,NaN,NaN,NaN,2
15,10,10,2,1,1,65.3645833333333,0.433655400000134,1.54443990000073,11.6599694204097,NaN,NaN,NaN,2
15,11,10,2,0,0,0,1.02713790000053,0.707273299998633,11.6599694204097,NaN,NaN,NaN,2
15,12,13,2,1,1,92.7083333333333,0.450080999999045,0.828336900001887,11.6599694204097,NaN,NaN,NaN,2
15,13,12,1,1,0,9.11458333333333,0.683413099999598,1.49568619999991,11.6599694204097,NaN,NaN,NaN,2
15,14,13,1,1,0,62.5,0.633391200000915,1.16189640000084,11.6599694204097,NaN,NaN,NaN,2
15,15,13,2,1,1,100,0.38348440000118,1.67657150000014,11.6599694204097,NaN,NaN,NaN,2
15,16,11,1,0,1,24.21875,1.79431459999978,1.22669060000044,11.6599694204097,NaN,NaN,NaN,2
15,17,12,2,1,1,62.7604166666667,1.77368619999834,1.72642719999931,11.6599694204097,NaN,NaN,NaN,2
15,18,13,2,1,1,93.75,1.12930029999916,2.14417790000152,11.6599694204097,NaN,NaN,NaN,2
15,19,13,1,1,0,100,0.450130400000489,0.678627500001312,11.6599694204097,NaN,NaN,NaN,2
15,20,12,1,1,0,71.09375,0.317020799997408,1.47859150000295,11.6599694204097,NaN,NaN,NaN,2
15,21,12,2,1,1,87.7604166666667,0.8225738000001,0.645979400000215,11.6599694204097,NaN,NaN,NaN,2
15,22,12,1,1,0,46.09375,0.387261699997907,1.44417469999826,11.6599694204097,NaN,NaN,NaN,2
15,23,12,2,1,1,100,0.80566700000054,0.728411600000982,11.6599694204097,NaN,NaN,NaN,2
15,24,12,1,1,0,53.6458333333333,0.454909700001735,1.09512399999949,11.6599694204097,NaN,NaN,NaN,2
15,25,12,1,1,0,94.7916666666667,0.416800099999818,0.810797300000559,11.6599694204097,NaN,NaN,NaN,2
15,26,11,1,0,1,22.9166666666667,1.40003210000214,1.46077179999702,11.6599694204097,NaN,NaN,NaN,2
15,27,13,1,1,0,96.3541666666667,0.583501299999625,1.17853489999834,11.6599694204097,NaN,NaN,NaN,2
15,28,13,1,1,0,100,1.04220910000004,0.644550900000468,11.6599694204097,NaN,NaN,NaN,2
15,29,11,2,0,0,49.21875,1.23350760000176,1.09413770000174,11.6599694204097,NaN,NaN,NaN,2
15,30,13,2,1,1,70.5729166666667,1.97397980000096,0.976599700003135,11.6599694204097,NaN,NaN,NaN,2
15,31,12,2,1,1,70.3125,0.383404799998971,1.89507360000061,11.6599694204097,NaN,NaN,NaN,2
15,32,12,1,0,1,3.38541666666667,0.821259199998167,0.961778199998662,11.6599694204097,NaN,NaN,NaN,2
15,33,13,2,1,1,98.1770833333333,0.61755329999869,1.62915639999846,11.6599694204097,NaN,NaN,NaN,2
15,34,12,2,1,1,15.1041666666667,1.90140139999858,1.79407799999899,11.6599694204097,NaN,NaN,NaN,2
15,35,13,1,1,0,80.2083333333333,0.496884799998952,0.77735390000089,11.6599694204097,NaN,NaN,NaN,2
15,36,12,2,1,1,85.4166666666667,1.61671289999867,1.57743019999907,11.6599694204097,NaN,NaN,NaN,2
15,37,12,1,0,1,0,0.487060999999812,1.34413999999742,11.6599694204097,NaN,NaN,NaN,2
15,38,13,1,1,0,67.7083333333333,0.500144799996633,1.24447169999985,11.6599694204097,NaN,NaN,NaN,2
15,39,13,2,1,1,61.4583333333333,0.416761600001337,1.54494210000121,11.6599694204097,NaN,NaN,NaN,2
15,40,13,1,1,0,72.9166666666667,0.516788799999631,0.97825880000164,11.6599694204097,NaN,NaN,NaN,2
15,41,13,2,1,1,100,0.528360799999064,1.07781220000106,11.6599694204097,NaN,NaN,NaN,2
15,42,12,1,1,0,0,0.733484299998963,0.961565999998129,11.6599694204097,NaN,NaN,NaN,2
15,43,12,2,0,0,84.375,0.696567200000572,1.31141010000283,11.6599694204097,NaN,NaN,NaN,2
15,44,13,1,1,0,91.6666666666667,0.450087400000484,1.86119840000174,11.6599694204097,NaN,NaN,NaN,2
15,45,13,2,1,1,100,0.380810300001031,0.811010000001261,11.6599694204097,NaN,NaN,NaN,2
15,46,12,2,1,1,100,0.333376099999441,1.72755970000071,11.6599694204097,NaN,NaN,NaN,2
15,47,12,2,1,1,0,0.599460100002034,0.709032899998419,11.6599694204097,NaN,NaN,NaN,2
15,48,13,1,1,0,100,0.31674589999966,0.65672270000141,11.6599694204097,NaN,NaN,NaN,2
15,49,12,2,1,1,2.34375,0.500054699998145,2.27889690000302,11.6599694204097,NaN,NaN,NaN,2
15,50,13,1,1,0,100,0.353224300000875,1.123720399999,11.6599694204097,NaN,NaN,NaN,2
15,51,13,2,1,1,27.6041666666667,0.373264600002585,0.994343299997126,11.6599694204097,NaN,NaN,NaN,2
15,52,12,1,1,0,100,0.383481000000756,0.661879600000248,11.6599694204097,NaN,NaN,NaN,2
15,53,12,1,1,0,1.5625,0.432070300001214,1.62773359999846,11.6599694204097,NaN,NaN,NaN,2
15,54,11,2,1,1,70.3125,0.316768600001524,1.41345730000103,11.6599694204097,NaN,NaN,NaN,2
15,55,12,1,1,0,100,0.300085200000467,0.625901100000192,11.6599694204097,NaN,NaN,NaN,2
15,56,11,1,1,0,7.03125,0.566942299999937,0.945267299997795,11.6599694204097,NaN,NaN,NaN,2
15,57,12,1,1,0,71.09375,0.283432200001698,0.795080600000801,11.6599694204097,NaN,NaN,NaN,2
15,58,11,1,1,0,57.03125,0.71725200000219,1.37674569999945,11.6599694204097,NaN,NaN,NaN,2
15,59,12,2,0,0,77.34375,0.300337299999228,0.878721400000359,11.6599694204097,NaN,NaN,NaN,2
15,60,13,2,1,1,100,0.483406600000308,0.627219900001364,11.6599694204097,NaN,NaN,NaN,2
16,1,9,1,1,0,0,0.533684699999867,0.770103299990296,9.06221530468029,0.5891014044791,4.70870110043973,0.354628017980075,1
16,2,8,2,1,1,0,1.83306079999602,1.58823080000002,8.08428706106389,0.583141482383258,4.51988062969854,0.35483280964703,1
16,3,7,2,1,1,0,1.68349349999335,0.785916599998018,7.17621316997907,0.582121635097884,4.2511359783809,0.354982194930787,1
16,4,6,1,1,0,100,1.35236320001422,1.25363130000187,6.35476877870258,0.583525570715244,3.93818012415157,0.354810249356686,1
16,5,5,1,0,1,100,0.392645500003709,0.816238899991731,8.71995659461543,0.578740241959087,4.0111073787935,0.356470762356985,1
16,6,8,1,1,0,0,0.372208200002206,0.743189200002234,8.00236400587424,0.586498458724795,3.7355942800761,0.35766761293389,1
16,7,8,1,1,0,100,0.606265499998699,0.527182199992239,7.40410747231964,0.59953713918231,3.4105167166589,0.358334521841735,1
16,8,7,2,1,1,0,1.50017159999697,0.742039300006581,6.88290230865999,0.610867026579908,3.11298575629226,0.358817352451773,1
16,9,7,2,0,0,0,0.850366400001803,0.555392299997038,9.15531430699588,0.536876025013731,3.61937735947419,0.350969131727519,1
16,10,9,2,0,0,0,1.28347460000077,0.460123700002441,11.7337331674646,0.48261742838255,3.61550598654075,0.338806886840568,1
16,11,11,1,1,0,0,2.18344610001077,0.942704799992498,11.1709440951794,0.472331535327002,3.56710703470245,0.333845422588987,1
16,12,11,1,1,0,100,0.266743000000133,0.657137100002728,10.6529784334619,0.470087554113677,3.47011676986296,0.331493505369584,1
16,13,11,2,0,0,0,0.59481140000571,0.906817600000068,12.8223367143925,0.451357647376119,3.24068052295403,0.33209768572877,1
16,14,13,1,1,0,100,0.450117499989574,0.693372800000361,12.4190303216684,0.442632299603804,3.22886038013626,0.326743905171905,1
16,15,12,2,0,0,100,0.416738600004464,0.760700099999667,13.940783216507,0.476421527560374,2.79783174676799,0.342658917079793,1
16,16,14,1,1,0,100,0.526449299999513,0.60986560001038,13.6325191868856,0.466240452452578,2.81703666945621,0.338175483823824,1
16,17,14,1,1,0,100,0.333469000004698,0.839556399994763,13.3386342292235,0.461342741558413,2.81877204709841,0.335751248498894,1
16,18,14,1,1,0,100,0.266739600003348,0.810855099989567,13.060595090546,0.460842658556052,2.80563153618047,0.335122100303705,1
16,19,14,2,1,1,100,0.400282599992352,2.10950369999046,12.7993150743387,0.463898902113417,2.78012677375729,0.335872467549527,1
16,20,14,2,1,1,100,1.3667734000046,1.13737700000638,12.5553181131427,0.469755417467386,2.74466121962908,0.337554586308464,1
16,21,14,2,1,1,100,0.600083199999062,1.36559810000472,12.328833351866,0.477756359491718,2.7015198701433,0.339762391717074,1
16,22,11,2,0,0,100,0.500034500000766,0.809755499998573,13.1850996569012,0.549982884727572,2.37391537136435,0.359836625031932,1
16,23,14,1,1,0,100,0.900156600007904,0.876561500001117,12.9847405660331,0.561081305745248,2.32924451492643,0.362506405541395,1
16,24,14,2,1,1,100,0.350116999994498,1.02817109999887,12.8005086326071,0.573940536485417,2.27874048849523,0.364919023302662,1
16,25,14,2,1,1,100,0.624250900000334,0.705420600002981,12.6323292962303,0.588038096677179,2.22435903541739,0.366870932633617,1
16,26,14,2,1,1,100,0.264550199994119,0.70990499999607,12.4798848686271,0.602931868377462,2.16789822395611,0.368235386032915,1
16,27,14,1,1,0,100,1.16046479999204,0.509745200004545,12.3426429012072,0.618255104106547,2.11095754556015,0.368950711722219,1
16,28,11,2,1,1,100,0.336092099998496,1.17825959999755,12.1298527755636,0.581438262021954,2.17895566014801,0.362748880261625,1
16,29,10,2,1,1,100,0.395275600007153,0.644523700000718,11.905556859339,0.535717024944961,2.27137087498435,0.353380454297234,1
16,30,10,1,0,1,100,0.31673970000702,0.644205499993404,12.4546428166554,0.630472995242984,1.98120917734595,0.363365165048342,1
16,31,14,2,1,1,100,0.000128499988932163,0.890879599988693,12.3365969705036,0.647175044572202,1.91899779952563,0.36282860940962,1
16,32,14,1,1,0,100,0.327381700000842,0.928389499997138,12.2316611604909,0.663675997259265,1.8585769733211,0.361585007768788,1
16,33,11,2,1,1,0,1.62736939999741,0.52655739999318,12.0540182406231,0.629166309826043,1.91481701580974,0.358238550153008,1
16,34,10,2,0,0,0,1.14597489999142,0.59399310000299,12.4275936246177,0.721236497885631,1.67034044262655,0.351306142770406,1
16,35,14,1,1,0,100,0.866622899993672,0.809769400002551,12.3390835782417,0.738179291700918,1.6065279104313,0.347444277640396,1
16,36,13,2,1,1,100,0.000107499989098869,0.810288499997114,12.2299642884029,0.746749034128867,1.56207171871141,0.344794731797295,1
16,37,13,2,1,1,0,0.616705199994612,0.943255799997132,12.1301228440236,0.755743740859235,1.5178726121263,0.341883146184953,1
16,38,13,1,0,1,0,0.81688870000653,1.25941400000011,12.7313798330611,0.694527862323736,1.65623367597972,0.356004879564981,1
16,39,14,1,1,0,100,0.85004669999762,1.75913269999728,12.6410707118021,0.711526367119446,1.59904957053817,0.353397491434952,1
16,40,14,2,1,1,100,0.78486640000483,0.677729000002728,12.5606690158187,0.728048843065178,1.54405060797744,0.350148352377261,1
16,41,14,2,1,1,100,1.20006199998898,0.593987100000959,12.489481539475,0.743981039326747,1.49185244508537,0.346350219949755,1
16,42,11,1,0,1,100,1.93873210001038,0.841919700003928,12.7645455732757,0.82336267704869,1.29569413406807,0.327618992062316,1
16,43,14,1,1,0,100,0.514721600004123,0.558986499992898,12.7036989466869,0.838451689278386,1.24257503713654,0.321112215197971,1
16,44,14,2,1,1,100,0.983473000000231,0.592342599993572,12.650432782592,0.852626140108426,1.19332815567908,0.31435928999566,1
16,45,14,1,1,0,100,0.316745199990692,0.741147900000215,12.6039250551233,0.865881414643113,1.14808144696853,0.307468513744615,1
16,46,12,2,1,1,100,0.272520300000906,0.809083300002385,12.509437891357,0.849268551303542,1.17187968582604,0.311283863589232,1
16,47,12,2,1,1,100,0.383375200006412,0.91007030000037,12.413160392125,0.833626144456547,1.19223536221908,0.314193708277066,1
16,48,11,2,0,0,0,1.33342049999919,0.622699300001841,12.6214562207523,0.899656720939986,1.02838966607576,0.286474681171163,1
16,49,13,1,1,0,100,0.34225719999813,0.658984800000326,12.5583253465221,0.903957131060783,1.00334593047682,0.282903598414784,1
16,50,13,1,1,0,100,0.700248799999827,0.775645999994595,12.4991478792105,0.908466505839105,0.978934504198203,0.279219666413235,1
16,51,13,2,1,1,100,1.48134990000108,0.490189500007546,12.4438104545654,0.913130601587452,0.955332828313602,0.275451608234427,1
16,52,13,2,1,1,100,1.15031330000784,0.777805600009742,12.3921709637089,0.917901200427759,0.932679866463936,0.27162540573149,1
16,53,13,1,0,1,0,0.650095300006797,0.677603199990699,12.7130691277161,0.885649522487548,1.00855269019165,0.294069346793375,1
16,54,14,1,1,0,100,0.250230500008911,0.806979700006195,12.6782241946896,0.897827230485152,0.968164426400667,0.286631149164409,1
16,55,14,1,1,0,98.1770833333333,0.666918999995687,0.674147800003993,12.6478358454687,0.909116194927292,0.931517311370261,0.279280924213339,1
16,56,14,2,1,1,100,0.400262099996326,1.22265779999725,12.6213384693335,0.91956504093307,0.898429166617413,0.27207709468987,1
16,57,12,2,1,1,100,0.416738100000657,0.842610299994703,12.5513639605623,0.904431675538526,0.921996436909765,0.277327770556015,1
16,58,12,1,1,0,100,0.411168699996779,0.892627399996854,12.4794845151967,0.88966028081005,0.943930476346091,0.281849347613194,1
16,59,11,1,0,1,100,1.95016120000219,0.53696559999662,12.626277965994,0.944620338165399,0.80898226899419,0.25114685011147,1
16,60,13,1,1,0,100,0.265034299998661,0.605267999999342,12.5822079945265,0.947396116579088,0.792912658552084,0.248053262053089,1
16,61,13,2,1,1,100,0.752901100000599,0.558238800003892,12.5404195074011,0.950290698129158,0.777526250374143,0.244930599776689,1
16,62,13,1,0,1,0,2.05004289999488,0.926700600000913,12.7836572905485,0.931915060860702,0.8213505470279,0.26264178373158,1
16,63,14,2,1,1,100,0.300159199992777,0.605971799988765,12.7589312588373,0.941753739013046,0.789081555378047,0.255235532953268,1
16,64,14,2,1,1,100,0.250064500010922,0.577251499998965,12.7372132328053,0.950833538038933,0.760037658957712,0.24807005447605,1
16,65,14,2,1,1,100,0.170655499998247,1.20805690000998,12.7181038315594,0.959210605394862,0.733980117812472,0.241172892342113,1
16,66,12,1,1,0,100,0.438117300000158,0.97737419999612,12.6637858389835,0.945301511587968,0.755890727495251,0.247303774681537,1
16,67,12,2,1,1,0,2.70000979999895,1.41155410000647,12.6075355012629,0.9313611874949,0.777224840824836,0.252882813053024,1
16,68,12,2,1,1,0,0.183459299994865,0.660553699999582,12.5495775080539,0.917517739808427,0.797766485245293,0.257892900616414,1
16,69,11,1,1,0,100,0.300253099994734,0.660960700013675,12.4860255426519,0.890942167148679,0.847278656059332,0.269601504902941,1
16,70,11,2,1,1,0,0.183401599992067,1.02655280000181,12.4162411556141,0.862833478768899,0.897825892725913,0.280062942014834,1
16,71,11,1,1,0,100,0.883480199991027,0.559978000004776,12.340387083705,0.833568247251912,0.94842984347419,0.288996040562576,1
16,72,11,1,0,1,0,0.633317799991346,0.459010299993679,12.5046146587497,0.89394562212199,0.815113683142803,0.263763439886152,1
16,73,11,2,1,1,0,1.21705759999168,0.643381399990176,12.4419856135214,0.867449691061582,0.860330633799488,0.273741614435227,1
16,74,11,1,0,1,100,2.25020510000468,0.690431499999249,12.5713524722124,0.920033664303262,0.749351085783579,0.248058185680317,1
16,75,13,2,1,1,100,1.5963669000048,0.644882799999323,12.5353234543801,0.922952141878883,0.734954736035898,0.244979375879823,1
16,76,12,1,1,0,100,0.216735299996799,1.04312930000015,12.4832384291173,0.911716889944894,0.747594346539498,0.248415169408802,1
16,77,11,2,1,1,100,0.526310699991882,0.96548790000088,12.428262524138,0.888164158394046,0.786036002720589,0.258189223646171,1
16,78,11,1,1,0,100,0.264190899993991,0.759897700001602,12.369114681375,0.863594592151252,0.825044324005582,0.267001961418353,1
16,79,11,2,0,0,100,0.283412499993574,0.757345999998506,12.4933310773471,0.913358190756975,0.726566962767864,0.243654620174402,1
16,80,13,1,1,0,100,0.266712199998437,0.808145700008026,12.4601795165548,0.917054985951586,0.711316883372752,0.240351763569541,1
16,81,13,1,1,0,100,0.233458999995491,0.556738900006167,12.4287079694994,0.920781183226234,0.696875052814462,0.237084698857241,1
16,82,12,2,1,1,100,0.116658899991307,0.659217400010675,12.3802573315823,0.911583288307359,0.705480877796959,0.23967284858359,1
16,83,12,1,1,0,100,0.308516800010693,0.693017199999304,12.331699013595,0.902868084166838,0.713197825496619,0.241962519626324,1
16,84,11,1,1,0,0,1.98398259999522,0.476810299995122,12.2782694119539,0.881585365042009,0.744928688333773,0.250223280479952,1
16,85,11,2,0,0,0,1.26463279999734,0.477490100005525,12.3912451122132,0.925403139065732,0.662189752736859,0.228327584108382,1
16,86,13,1,1,0,100,0.316723600000842,1.12668370000029,12.3633559019551,0.929617770420939,0.648071088819547,0.224986006098521,1
16,87,13,1,1,0,100,0.300129800001741,0.774853900002199,12.3369132019879,0.933801678968605,0.634797607266003,0.221704550133288,1
16,88,13,1,1,0,100,0.527862599992659,0.727636600000551,12.3118342517759,0.937947625500973,0.622330469393504,0.218486177457719,1
16,89,13,1,1,0,100,0.257727300006081,1.34328020000248,12.2880389362555,0.94204944831755,0.610626428742859,0.215333106904475,1
16,90,12,2,0,0,100,0.300265600002604,0.594060400006128,12.4271090048999,0.962977740820352,0.572265070038089,0.20706362506891,1
16,91,13,1,1,0,100,0.950334199995268,0.792498900002101,12.40394468652,0.966405219327366,0.56124468856081,0.204017944018475,1
16,92,13,2,1,1,100,0.200071100000059,0.774407499993686,12.3818871471656,0.969795250428095,0.550917025274513,0.201040440752293,1
16,93,13,1,1,0,100,1.13359919999493,0.826230899998336,12.3608725811007,0.97314407610181,0.541239309965675,0.198132246906364,1
16,94,13,2,1,1,100,1.43509499999345,1.02830279999762,12.3408399869117,0.97644857221909,0.53216784406841,0.195293941984466,1
16,95,13,2,0,0,100,1.76673940000182,0.575702500005718,12.4902538798523,0.950976903197178,0.572948383923693,0.214015522594185,1
16,96,11,1,1,0,100,1.69268139998894,0.511918999996851,12.4520476009985,0.932200340413383,0.600686106732171,0.223275400272713,1
16,97,11,1,1,0,100,0.830829300000914,0.74373810000543,12.4110234241555,0.912349985761331,0.629694397817274,0.232150759738047,1
16,98,11,1,1,0,100,0.270936000000802,0.745749100009562,12.367145980388,0.891547980542416,0.659697942439009,0.240492648551444,1
16,99,11,2,1,1,100,0.107499099991401,0.610879100000602,12.3204346391508,0.869950651992847,0.690384838977236,0.248165880031026,1
16,100,11,2,1,1,100,0.210799199994653,0.725767800002359,12.2709662676144,0.847742774297258,0.721421507812728,0.255057335761325,1
16,1,8,2,1,1,0,1.52843640001083,1.38683260000835,12.6842407699721,NaN,NaN,NaN,2
16,2,8,2,0,0,100,0.916907699996955,0.826639899998554,12.6842407699721,NaN,NaN,NaN,2
16,3,8,1,0,1,0,1.01698759999999,0.877215100001195,12.6842407699721,NaN,NaN,NaN,2
16,4,11,1,0,1,0,1.06054030000814,1.17616679999628,12.6842407699721,NaN,NaN,NaN,2
16,5,12,2,1,1,100,0.728051100013545,0.885904000009759,12.6842407699721,NaN,NaN,NaN,2
16,6,12,2,1,1,100,0.65709649999917,0.759523699991405,12.6842407699721,NaN,NaN,NaN,2
16,7,13,2,1,1,0,1.89920250000432,0.747772199989413,12.6842407699721,NaN,NaN,NaN,2
16,8,13,2,1,1,100,0.49907869999879,0.791554800001904,12.6842407699721,NaN,NaN,NaN,2
16,9,11,1,1,0,100,0.817931300000055,0.988817000004929,12.6842407699721,NaN,NaN,NaN,2
16,10,13,1,1,0,100,0.834425299995928,0.945089400003781,12.6842407699721,NaN,NaN,NaN,2
16,11,11,2,1,1,100,0.762711000003037,0.728381900000386,12.6842407699721,NaN,NaN,NaN,2
16,12,10,2,0,0,0,1.21823359999689,0.794178500000271,12.6842407699721,NaN,NaN,NaN,2
16,13,12,2,1,1,100,0.480142300002626,1.02942010000697,12.6842407699721,NaN,NaN,NaN,2
16,14,12,1,0,1,100,0.546020499998122,0.778020999990986,12.6842407699721,NaN,NaN,NaN,2
16,15,12,2,1,1,100,0.628625700002885,0.992581999991671,12.6842407699721,NaN,NaN,NaN,2
16,16,12,1,0,1,0,0.631433000002289,0.920969300001161,12.6842407699721,NaN,NaN,NaN,2
16,17,14,1,1,0,100,0.491794999994454,0.794490300002508,12.6842407699721,NaN,NaN,NaN,2
16,18,13,1,1,0,100,0.581392499996582,0.674754300009226,12.6842407699721,NaN,NaN,NaN,2
16,19,13,1,1,0,100,0.614954699994996,0.927131899996311,12.6842407699721,NaN,NaN,NaN,2
16,20,13,2,1,1,100,0.245292699997663,0.95931940000446,12.6842407699721,NaN,NaN,NaN,2
16,21,13,1,1,0,100,0.620695999998134,1.36053710000124,12.6842407699721,NaN,NaN,NaN,2
16,22,13,2,1,1,100,0.73640529999102,1.12831489999371,12.6842407699721,NaN,NaN,NaN,2
16,23,12,2,1,1,100,0.600142099996447,0.842353700005333,12.6842407699721,NaN,NaN,NaN,2
16,24,13,1,0,1,0,0.700098799992702,0.711185599997407,12.6842407699721,NaN,NaN,NaN,2
16,25,14,1,1,0,100,0.494034800009103,0.827661199989961,12.6842407699721,NaN,NaN,NaN,2
16,26,12,1,0,1,100,0.957387199989171,1.27582470000198,12.6842407699721,NaN,NaN,NaN,2
16,27,14,2,1,1,100,0.308259900004487,1.27675360000285,12.6842407699721,NaN,NaN,NaN,2
16,28,14,2,1,1,100,0.537067400000524,0.810040800002753,12.6842407699721,NaN,NaN,NaN,2
16,29,13,2,1,1,100,0.438599000000977,0.777542800002266,12.6842407699721,NaN,NaN,NaN,2
16,30,13,1,1,0,100,0.85110369999893,0.795231900003273,12.6842407699721,NaN,NaN,NaN,2
16,31,13,2,0,0,100,0.416809600006673,0.944769200010342,12.6842407699721,NaN,NaN,NaN,2
16,32,13,1,1,0,100,0.457431000002543,1.14532399999734,12.6842407699721,NaN,NaN,NaN,2
16,33,14,2,1,1,100,0.897804299995187,0.810748100004275,12.6842407699721,NaN,NaN,NaN,2
16,34,14,1,1,0,100,0.82067719999759,0.794195299997227,12.6842407699721,NaN,NaN,NaN,2
16,35,13,1,0,1,0,0.650087999994867,0.679203100007726,12.6842407699721,NaN,NaN,NaN,2
16,36,14,1,1,0,100,0.8668650000036,0.962591199990129,12.6842407699721,NaN,NaN,NaN,2
16,37,14,2,1,1,100,0.549990900006378,1.02837569999974,12.6842407699721,NaN,NaN,NaN,2
16,38,13,1,1,0,100,0.683492099997238,1.17802789999405,12.6842407699721,NaN,NaN,NaN,2
16,39,14,2,1,1,100,0.913720600001398,2.41233960000682,12.6842407699721,NaN,NaN,NaN,2
16,40,13,1,0,1,0,0.68340249999892,0.845066299996688,12.6842407699721,NaN,NaN,NaN,2
16,41,14,2,1,1,100,0.667094400007045,0.945072100003017,12.6842407699721,NaN,NaN,NaN,2
16,42,14,2,1,1,100,0.51677539999946,1.01088560000062,12.6842407699721,NaN,NaN,NaN,2
16,43,14,2,1,1,100,0.55003040000156,0.928213000006508,12.6842407699721,NaN,NaN,NaN,2
16,44,13,1,1,0,0,0.821662899994408,0.794953899996472,12.6842407699721,NaN,NaN,NaN,2
16,45,13,1,1,0,0,0.600125700002536,0.710776599997189,12.6842407699721,NaN,NaN,NaN,2
16,46,13,2,1,1,100,0.21678270000848,1.07803910000075,12.6842407699721,NaN,NaN,NaN,2
16,47,13,1,1,0,100,0.441948699997738,1.06148639999446,12.6842407699721,NaN,NaN,NaN,2
16,48,13,2,1,1,100,0.423890199992456,1.07903959999385,12.6842407699721,NaN,NaN,NaN,2
16,49,13,1,1,0,100,0.333423999996739,0.76165879999462,12.6842407699721,NaN,NaN,NaN,2
16,50,14,2,1,1,100,0.466803399991477,0.728454900003271,12.6842407699721,NaN,NaN,NaN,2
16,51,12,2,0,0,0,0.838120000000345,0.710353599992231,12.6842407699721,NaN,NaN,NaN,2
16,52,14,1,1,0,100,0.833516300001065,0.761750100005884,12.6842407699721,NaN,NaN,NaN,2
16,53,13,1,1,0,100,0.500180000002729,0.777669299990521,12.6842407699721,NaN,NaN,NaN,2
16,54,13,2,1,1,100,0.483402600002591,1.07849660000647,12.6842407699721,NaN,NaN,NaN,2
16,55,13,1,1,0,100,0.433420500005013,0.660692599994945,12.6842407699721,NaN,NaN,NaN,2
16,56,13,1,1,0,100,0.490255600001547,0.994051900008344,12.6842407699721,NaN,NaN,NaN,2
16,57,13,1,1,0,100,0.730643400005647,1.25471860000107,12.6842407699721,NaN,NaN,NaN,2
16,58,13,1,1,0,100,0.533142200001748,0.629421699995873,12.6842407699721,NaN,NaN,NaN,2
16,59,13,2,1,1,100,0.366828600002918,0.894507100005285,12.6842407699721,NaN,NaN,NaN,2
16,60,13,2,1,1,100,0.416737899999134,1.29525579999608,12.6842407699721,NaN,NaN,NaN,2
18,1,9,2,1,1,75.78125,0.830147199972998,0.838446700014174,9.06221530468029,0.5891014044791,4.70870110043973,0.354628017980075,1
18,2,8,1,1,0,77.34375,1.04857839999022,1.02001320000272,8.08428706106389,0.583141482383258,4.51988062969854,0.35483280964703,1
18,3,7,2,1,1,71.09375,0.421621399989817,2.47158509999281,7.17621316997907,0.582121635097884,4.2511359783809,0.354982194930787,1
18,4,6,2,1,1,50,1.4130130999838,0.961112500051968,6.35476877870258,0.583525570715244,3.93818012415157,0.354810249356686,1
18,5,5,1,0,1,23.9583333333333,2.11720370000694,2.01205020002089,8.71995659461543,0.578740241959087,4.0111073787935,0.356470762356985,1
18,6,8,1,0,1,44.7916666666667,2.19552060001297,1.15967539994745,11.5887988359403,0.547723896021256,3.78586750337172,0.349931009742061,1
18,7,11,2,1,1,77.8645833333333,0.500083599996287,1.45419779996155,10.9479376657435,0.538809466641769,3.7274872874682,0.347792390536523,1
18,8,11,1,1,0,63.28125,0.409874100005254,0.941886999993585,10.3661209679565,0.538271271862148,3.60635906086497,0.347118641667023,1
18,9,10,1,0,1,39.0625,0.321938299981412,1.47701999999117,12.5929353731432,0.531364926180617,3.26401867589144,0.345810225946765,1
18,10,12,2,0,0,54.1666666666667,0.482557000010274,1.49270790000446,14.2785668733546,0.56128466656562,2.7259676154611,0.350906856537775,1
18,11,14,2,0,0,50.2604166666667,2.70785950002028,1.36047879996477,15.4876908514185,0.610915781434966,2.19370428724832,0.358221943563965,1
18,12,15,1,0,1,46.3541666666667,0.400074900011532,0.90950690000318,16.2631569447956,0.675897621707099,1.74841494476615,0.359936754394357,1
18,13,14,2,1,1,72.65625,0.366765999991912,0.739237900008447,16.0704046733071,0.632173757022401,1.86067812732044,0.359859292529026,1
18,14,14,1,1,0,73.9583333333333,0.62441749998834,4.27020259998972,15.8672092518946,0.591075649955434,1.96637256790802,0.356285444950958,1
18,15,14,2,1,1,83.8541666666667,2.5737475999631,3.26049760001479,15.6564158004118,0.553604360514503,2.06388147946038,0.35005779034616,1
18,16,14,2,1,1,63.8020833333333,0.431805400003213,1.24118750001071,15.4406165241696,0.520411222513577,2.1522821732207,0.342150526509898,1
18,17,13,2,0,0,44.2708333333333,2.36498670000583,1.19362199999159,15.9577932826733,0.606200440496596,1.80128488277165,0.34983734537352,1
18,18,14,2,1,1,82.5520833333333,0.600086599995848,2.7749049999984,15.7791160207702,0.572039964352036,1.88129310576312,0.345644438406192,1
18,19,14,2,1,1,80.46875,2.37803099997109,2.30376879998948,15.5969399325252,0.541504483742179,1.95461018826053,0.340045548827645,1
18,20,13,1,0,1,39.84375,0.583499000000302,1.89466879999964,16.0035177247689,0.621955982681471,1.68239048044514,0.343588714262632,1
18,21,16,1,1,0,77.0833333333333,1.38099949999014,3.47702619998017,15.8673285186136,0.617781198838939,1.70668125039145,0.343481768765038,1
18,22,16,1,1,0,100,0.898028499970678,1.29153460002271,15.7326705965946,0.616432741405686,1.72471212868211,0.343855928294873,1
18,23,16,1,1,0,100,0.543850700021721,0.924941000004765,15.6002448777262,0.617705306047902,1.73660571077844,0.344650029363495,1
18,24,16,1,1,0,85.6770833333333,1.10011370002758,1.14120359998196,15.4707372756082,0.621369063111321,1.74256139497766,0.345756057335477,1
18,25,16,2,1,1,85.15625,0.551066600019112,3.40984460001346,15.3448139640949,0.627177638465895,1.74285938355136,0.34703714980996,1
18,26,17,1,1,0,82.03125,1.8971580999787,2.84319210000103,15.2525940292312,0.64128531598781,1.72828234089771,0.347639122833121,1
18,27,17,1,1,0,91.9270833333333,1.33340180001687,1.77736609999556,15.1647382107515,0.655954457526443,1.71043417319465,0.347733751319372,1
18,28,16,1,1,0,100,0.833429199992679,0.677539500000421,15.0517956647304,0.665317964421338,1.69821454550786,0.348332823549854,1
18,29,16,2,1,1,100,0.703148700005841,2.84080559998984,14.9445863745708,0.675888231121827,1.6821261545561,0.348626329049779,1
18,30,16,2,1,1,86.71875,0.796022999973502,1.46152539999457,14.8434639328791,0.687418408711739,1.6627686376644,0.348527547238222,1
18,31,16,2,1,1,79.1666666666667,0.413984999991953,1.47442859999137,14.748683296792,0.699675118826682,1.64075947490332,0.347973604324192,1
18,32,16,2,1,1,89.3229166666667,1.03151119995164,0.827500800020061,14.6603966530681,0.712441960443703,1.61671373292233,0.346926053377254,1
18,33,16,2,1,1,100,0.833440599963069,0.660529399989173,14.5786539442461,0.725522264337567,1.59122433697284,0.345369619495271,1
18,34,16,1,1,0,78.90625,0.34001669997815,1.6097798999981,14.5034078957803,0.738741019209777,1.56484440582404,0.343309643571218,1
18,35,16,2,1,1,96.09375,0.399696199980099,1.32647410000209,14.4345229150599,0.751945936969054,1.538072871587,0.340768719223057,1
18,36,12,2,0,0,10.6770833333333,2.50756689999253,1.97386650001863,14.6910940579323,0.831625568351226,1.29118641403376,0.313808849593248,1
18,37,16,1,1,0,93.2291666666667,0.882909299980383,1.30739959998755,14.6307544522551,0.844135032322348,1.26033215419946,0.309047920071181,1
18,38,16,2,1,1,92.96875,1.36551710002823,0.992856900033075,14.5761128247941,0.856243540553041,1.23021113160798,0.303950678224683,1
18,39,16,2,1,1,100,0.56105000001844,0.875503899995238,14.5267952218465,0.867880108996718,1.20112598113767,0.29859114822013,1
18,40,15,1,1,0,26.3020833333333,1.05008309998084,2.8094980000169,14.4508316302491,0.871401068773889,1.18885160968529,0.2965973221807,1
18,41,15,1,1,0,80.46875,0.625785399985034,0.923271600040607,14.3791759660895,0.875385781628481,1.17573891747117,0.294354557642324,1
18,42,15,1,1,0,86.71875,0.300798199954443,1.22632160002831,14.3117867167385,0.879746789073989,1.16204671550817,0.291892425118474,1
18,43,15,1,1,0,84.1145833333333,1.42965379997622,1.40992539998842,14.2485819094396,0.884404108427799,1.14800735128331,0.289239559095829,1
18,44,14,2,1,1,72.1354166666667,0.4665559999994,1.69518480001716,14.1559749110864,0.874974585262363,1.16644855694581,0.292059591969625,1
18,45,13,1,0,1,9.63541666666667,2.04135710000992,1.17741750000278,14.4027818841174,0.931408230653803,0.982525918720214,0.263563160261794,1
18,46,15,1,1,0,82.8125,0.686991599970497,0.918562999984715,14.3481393799347,0.936317204667971,0.966009984242587,0.260339855901498,1
18,47,15,1,1,0,82.8125,0.216743800032418,0.493524799996521,14.2970546926657,0.941320033943615,0.94969544962754,0.256981898021617,1
18,48,15,2,1,1,85.4166666666667,0.71532139996998,0.826362099964172,14.2493701217543,0.946368118406122,0.933710415595408,0.253518828593053,1
18,49,15,2,1,1,73.6979166666667,0.581631100038067,0.393188800022472,14.2049149545599,0.951420023400077,0.918155734735571,0.249978108808317,1
18,50,15,1,1,0,94.53125,0.483494099986274,0.473064200021327,14.1635101569067,0.956440991649939,0.903106927910644,0.246384937132205,1
18,51,14,2,1,1,84.8958333333333,0.317346600000747,1.17655749997357,14.0955504215907,0.950742131563266,0.913508351700254,0.249005136724559,1
18,52,14,2,1,1,83.8541666666667,0.318535700032953,0.96042740001576,14.0285956061249,0.945572102344073,0.92278951504161,0.251295922098374,1
18,53,14,1,1,0,86.9791666666667,0.283494200033601,1.27573919994757,13.9628917518059,0.940947130749451,0.930965278146785,0.253279551363477,1
18,54,14,1,1,0,100,1.16441090003354,0.554016700014472,13.8986585856252,0.936874252324949,0.938072204766994,0.25497892098351,1
18,55,14,1,1,0,88.8020833333333,0.387216200004332,1.10381409997353,13.8360873165762,0.933352208012236,0.944163997305784,0.25641668959325,1
